"","classification_id","user_name","subject_ids","workflow_version","task_index","task","task_label","array.index","choice","answers.HOWMANY","answers.ESTIMATEOFSNOWDEPTHSEETUTORIALORFIELDGUIDE","answers.ANTLERSPRESENT","answers.HOWMANYPEOPLE","answers.WHATTYPEOFHUMAN","workflow_id","id","class.count","round","Imj1","Imj2","Img3","CamNum","SD_card_num","Event"
"1",293839821,"Suem28",52256696,"11.8",1,"T0",NA,1,"SQUIRRELGRAY","1","NOSNOWBAREGROUND",NA,NA,NA,16695,"73024141",5,"R1","C28_SD18_R1_0343.JPG","C28_SD18_R1_0344.JPG","C28_SD18_R1_0345.JPG","28","18","247"
"2",293839995,"Suem28",52259301,"11.8",1,"T0",NA,1,"DEERWHITETAILED","1","NOSNOWBAREGROUND",NA,NA,NA,16695,"73286645",5,"R1","C45_SD5_R1_0025.JPG","C45_SD5_R1_0026.JPG","C45_SD5_R1_0027.JPG","45","5","1551"
"3",293840382,"Suem28",52259303,"11.8",1,"T0",NA,1,"CHIPMUNK","1","NOSNOWBAREGROUND",NA,NA,NA,16695,"73015419",5,"R1","C45_SD5_R1_0031.JPG","C45_SD5_R1_0032.JPG","C45_SD5_R1_0033.JPG","45","5","1553"
"4",293840905,"Suem28",52256564,"11.8",1,"T0",NA,1,"SQUIRRELGRAY","1","NOSNOWBAREGROUND",NA,NA,NA,16695,"73366604",5,"R1","C28_SD18_R1_0151.JPG","C28_SD18_R1_0152.JPG","C28_SD18_R1_0153.JPG","28","18","183"
"5",293841018,"Suem28",52257025,"11.8",1,"T0",NA,1,"OTHERBIRD",NA,NA,NA,NA,NA,16695,"72975446",5,"R1","C28_SD18_R1_0829.JPG","C28_SD18_R1_0830.JPG","C28_SD18_R1_0831.JPG","28","18","409"
"6",293921028,"Suem28",52256895,"11.8",1,"T0",NA,1,"SQUIRRELGRAY","1","NOSNOWBAREGROUND",NA,NA,NA,16695,"73488143",5,"R1","C28_SD18_R1_0646.JPG","C28_SD18_R1_0647.JPG","C28_SD18_R1_0648.JPG","28","18","348"
"7",293921207,"Suem28",52256937,"11.8",1,"T0",NA,1,"SQUIRRELGRAY","1","NOSNOWBAREGROUND",NA,NA,NA,16695,"72909024",5,"R1","C28_SD18_R1_0709.JPG","C28_SD18_R1_0710.JPG","C28_SD18_R1_0711.JPG","28","18","369"
"8",293921492,"Suem28",52259825,"11.8",1,"T0",NA,1,"DEERWHITETAILED","1","NOSNOWBAREGROUND","NO",NA,NA,16695,"73030851",5,"R1","C52_SD69_R1_0127.JPG","C52_SD69_R1_0128.JPG","C52_SD69_R1_0129.JPG","52","69","1831"
"9",293921805,"Suem28",52259329,"11.8",1,"T0",NA,1,"DEERWHITETAILED","1","NOSNOWBAREGROUND",NA,NA,NA,16695,"72892307",5,"R1","C45_SD5_R1_0064.JPG","C45_SD5_R1_0065.JPG","C45_SD5_R1_0066.JPG","45","5","1564"
"10",293921945,"Suem28",52256591,"11.8",1,"T0",NA,1,"SQUIRRELGRAY","1","NOSNOWBAREGROUND",NA,NA,NA,16695,"73347776",5,"R1","C28_SD18_R1_0190.JPG","C28_SD18_R1_0191.JPG","C28_SD18_R1_0192.JPG","28","18","196"
"11",293922106,"Suem28",52256383,"11.8",1,"T0",NA,1,"RACCOON","1","NOSNOWBAREGROUND",NA,NA,NA,16695,"73347274",5,"R1","C27_SD25_R1_0022.JPG","C27_SD25_R1_0023.JPG","C27_SD25_R1_0024.JPG","27","25","93"
"12",293923084,"Suem28",52256561,"11.8",1,"T0",NA,1,"SQUIRRELGRAY","1","NOSNOWBAREGROUND",NA,NA,NA,16695,"72974161",5,"R1","C28_SD18_R1_0145.JPG","C28_SD18_R1_0146.JPG","C28_SD18_R1_0147.JPG","28","18","181"
"13",293923216,"Suem28",52259781,"11.8",1,"T0",NA,1,"DEERWHITETAILED","1","NOSNOWBAREGROUND",NA,NA,NA,16695,"72690596",5,"R1","C52_SD69_R1_0061.JPG","C52_SD69_R1_0062.JPG","C52_SD69_R1_0063.JPG","52","69","1809"
"14",293923598,"Suem28",52259577,"11.8",1,"T0",NA,1,"BLACKBEAR","23","NOSNOWBAREGROUND",NA,NA,NA,16695,"73019784",5,"R1","C48_SD71_R1_0196.JPG","C48_SD71_R1_0197.JPG","C48_SD71_R1_0198.JPG","48","71","1697"
"15",294054788,"Suem28",52259778,"11.8",1,"T0",NA,1,"DEERWHITETAILED","1","NOSNOWBAREGROUND",NA,NA,NA,16695,"72994777",5,"R1","C52_SD69_R1_0055.JPG","C52_SD69_R1_0056.JPG","C52_SD69_R1_0057.JPG","52","69","1807"
"16",294054848,"Suem28",53235307,"11.8",1,"T0",NA,1,"DEERWHITETAILED","1","NOSNOWBAREGROUND",NA,NA,NA,16695,"73998688",6,"beta test","C23_EK000124.JPG","C23_EK000125.JPG","C23_EK000126.JPG","23",NA,"87"
"17",294054927,"Suem28",52256854,"11.8",1,"T0",NA,1,"SQUIRRELGRAY","1","NOSNOWBAREGROUND",NA,NA,NA,16695,"72909585",5,"R1","C28_SD18_R1_0583.JPG","C28_SD18_R1_0584.JPG","C28_SD18_R1_0585.JPG","28","18","327"
"18",294090095,"Suem28",52257093,"11.8",1,"T0",NA,1,"RACCOON","1","NOSNOWBAREGROUND",NA,NA,NA,16695,"73065477",5,"R1","C28_SD18_R1_0931.JPG","C28_SD18_R1_0932.JPG","C28_SD18_R1_0933.JPG","28","18","443"
"19",294090208,"Suem28",52256312,"11.8",1,"T0",NA,1,"DOMESTICDOG","1","NOSNOWBAREGROUND",NA,NA,NA,16695,"73366533",5,"R1","C23_SD17_R1_IMG_0004.JPG","C23_SD17_R1_IMG_0005.JPG","C23_SD17_R1_IMG_0006.JPG","23","17","62"
"20",294090272,"Suem28",52256828,"11.8",1,"T0",NA,1,"SQUIRRELGRAY","1","NOSNOWBAREGROUND",NA,NA,NA,16695,"72972582",6,"R1","C28_SD18_R1_0553.JPG","C28_SD18_R1_0554.JPG","C28_SD18_R1_0555.JPG","28","18","317"
"21",294090338,"Suem28",52258303,"11.8",1,"T0",NA,1,"DEERWHITETAILED","1","NOSNOWBAREGROUND",NA,NA,NA,16695,"72973133",5,"R1","C42_SD78_R1_0952.JPG","C42_SD78_R1_0953.JPG","C42_SD78_R1_0954.JPG","42","78","1019"
"22",294090433,"Suem28",52259358,"11.8",1,"T0",NA,1,"RACCOON","1","NOSNOWBAREGROUND",NA,NA,NA,16695,"73286391",5,"R1","C47_SD76_R1_0010.JPG","C47_SD76_R1_0011.JPG","C47_SD76_R1_0012.JPG","47","76","1579"
"23",294090533,"Suem28",52256701,"11.8",1,"T0",NA,1,"SQUIRRELGRAY","1","NOSNOWBAREGROUND",NA,NA,NA,16695,"73454745",5,"R1","C28_SD18_R1_0355.JPG","C28_SD18_R1_0356.JPG","C28_SD18_R1_0357.JPG","28","18","251"
"24",294145738,"Suem28",52257521,"11.8",1,"T0",NA,1,"DEERWHITETAILED","1","NOSNOWBAREGROUND",NA,NA,NA,16695,"72890966",5,"R1","C37_SD6_R1_0346.JPG","C37_SD6_R1_0347.JPG","C37_SD6_R1_0348.JPG","37","6","654"
"25",294145926,"Suem28",52259377,"11.8",1,"T0",NA,1,"DEERWHITETAILED","1","NOSNOWBAREGROUND",NA,NA,NA,16695,"73455095",5,"R1","C47_SD76_R1_0043.JPG","C47_SD76_R1_0044.JPG","C47_SD76_R1_0045.JPG","47","76","1590"
"26",294146303,"Suem28",52256739,"11.8",1,"T0",NA,1,"OPOSSUM","1","NOSNOWBAREGROUND",NA,NA,NA,16695,"73476254",5,"R1","C28_SD18_R1_0424.JPG","C28_SD18_R1_0425.JPG","C28_SD18_R1_0426.JPG","28","18","274"
"27",294146629,"Suem28",52256998,"11.8",1,"T0",NA,1,"OTHERBIRD",NA,NA,NA,NA,NA,16695,"72892381",5,"R1","C28_SD18_R1_0802.JPG","C28_SD18_R1_0803.JPG","C28_SD18_R1_0804.JPG","28","18","400"
"28",294146629,"Suem28",52256998,"11.8",1,"T0",NA,2,"SQUIRRELGRAY","1","NOSNOWBAREGROUND",NA,NA,NA,16695,"72892381",5,"R1","C28_SD18_R1_0802.JPG","C28_SD18_R1_0803.JPG","C28_SD18_R1_0804.JPG","28","18","400"
"29",294417751,"Suem28",52256548,"11.8",1,"T0",NA,1,"SQUIRRELGRAY","1","NOSNOWBAREGROUND",NA,NA,NA,16695,"73041582",5,"R1","C28_SD18_R1_0121.JPG","C28_SD18_R1_0122.JPG","C28_SD18_R1_0123.JPG","28","18","173"
"30",294417917,"Suem28",53235388,"11.8",1,"T0",NA,1,"OTHERBIRD",NA,NA,NA,NA,NA,16695,"73999176",5,"beta test","C31_IMG_0142.JPG","C31_IMG_0143.JPG","C31_IMG_0144.JPG","31",NA,"147"
"31",294418179,"Suem28",52256694,"11.8",1,"T0",NA,1,"SQUIRRELGRAY","1","NOSNOWBAREGROUND",NA,NA,NA,16695,"73488644",6,"R1","C28_SD18_R1_0340.JPG","C28_SD18_R1_0341.JPG","C28_SD18_R1_0342.JPG","28","18","246"
"32",294418263,"Suem28",52256938,"11.8",1,"T0",NA,1,"SQUIRRELGRAY","1","NOSNOWBAREGROUND",NA,NA,NA,16695,"73346710",5,"R1","C28_SD18_R1_0712.JPG","C28_SD18_R1_0713.JPG","C28_SD18_R1_0714.JPG","28","18","370"
"33",294418399,"Suem28",53235390,"11.8",1,"T0",NA,1,"SQUIRRELGRAY","1","NOSNOWBAREGROUND",NA,NA,NA,16695,"73999570",7,"beta test","C31_IMG_0148.JPG","C31_IMG_0149.JPG","C31_IMG_0150.JPG","31",NA,"149"
"34",294418747,"Suem28",52257235,"11.8",1,"T0",NA,1,"DOMESTICDOG","1","NOSNOWBAREGROUND",NA,NA,NA,16695,"73487875",5,"R1","C34_SD63_R1_IMG_0004.JPG","C34_SD63_R1_IMG_0005.JPG","C34_SD63_R1_IMG_0006.JPG","34","63","509"
"35",294418747,"Suem28",52257235,"11.8",1,"T0",NA,2,"HUMAN",NA,NA,NA,"1","RECREATIONALIST",16695,"73487875",5,"R1","C34_SD63_R1_IMG_0004.JPG","C34_SD63_R1_IMG_0005.JPG","C34_SD63_R1_IMG_0006.JPG","34","63","509"
"36",294436539,"Suem28",52257524,"11.8",1,"T0",NA,1,"OTHERSMALLMAMMAL","1","NOSNOWBAREGROUND",NA,NA,NA,16695,"73334263",5,"R1","C37_SD6_R1_0352.JPG","C37_SD6_R1_0353.JPG","C37_SD6_R1_0354.JPG","37","6","656"
"37",294436783,"Suem28",52257153,"11.8",1,"T0",NA,1,"FOXGRAY","1","NOSNOWBAREGROUND",NA,NA,NA,16695,"73488366",5,"R1","C31_SD59_R1_IMG_0022.JPG","C31_SD59_R1_IMG_0023.JPG","C31_SD59_R1_IMG_0024.JPG","31","59","472"
"38",294436922,"Suem28",52258304,"11.8",1,"T0",NA,1,"DEERWHITETAILED","1","NOSNOWBAREGROUND","NO",NA,NA,16695,"73347744",5,"R1","C42_SD78_R1_0955.JPG","C42_SD78_R1_0956.JPG","C42_SD78_R1_0957.JPG","42","78","1020"
"39",294857467,"not-logged-in-711bb896f1fd236cc99d",53235387,"11.8",1,"T0",NA,1,"MINK","1","NOSNOWBAREGROUND",NA,NA,NA,16695,"73998567",6,"beta test","C31_IMG_0139.JPG","C31_IMG_0140.JPG","C31_IMG_0141.JPG","31",NA,"146"
"40",294857623,"chalverson22",53235319,"11.8",1,"T0",NA,1,"FOXGRAY","1","NOSNOWBAREGROUND",NA,NA,NA,16695,"73998796",5,"beta test","C25_EK000010.JPG","C25_EK000011.JPG","C25_EK000012.JPG","25",NA,"95"
"41",294857717,"chalverson22",53235338,"11.8",1,"T0",NA,1,"BLUEJAY",NA,NA,NA,NA,NA,16695,"73998929",5,"beta test","C31_IMG_0013.JPG","C31_IMG_0014.JPG","C31_IMG_0015.JPG","31",NA,"104"
"42",294857724,"not-logged-in-a962e514db4055ac3cc1",53235193,"11.8",1,"T0",NA,1,"DEERWHITETAILED","1","NOSNOWBAREGROUND",NA,NA,NA,16695,"73998189",5,"beta test","C13_IMG_0085.JPG","C13_IMG_0086.JPG","C13_IMG_0087.JPG","13",NA,"29"
"43",294857744,"WendiLK",53235152,"11.8",1,"T0",NA,1,"DEERWHITETAILED","1","NOSNOWBAREGROUND","NO",NA,NA,16695,"73999614",5,"beta test","C13_IMG_0031.JPG","C13_IMG_0032.JPG","C13_IMG_0033.JPG","13",NA,"11"
"44",294857849,"chalverson22",53235415,"11.8",1,"T0",NA,1,"DEERWHITETAILED","23","DUSTING10CM","NO",NA,NA,16695,"73998261",5,"beta test","C31_IMG_0193.JPG","C31_IMG_0194.JPG","C31_IMG_0195.JPG","31",NA,"164"
"45",294857870,"not-logged-in-a962e514db4055ac3cc1",53235411,"11.8",1,"T0",NA,1,"DEERWHITETAILED","1","NOSNOWBAREGROUND","NO",NA,NA,16695,"73998139",5,"beta test","C31_IMG_0187.JPG","C31_IMG_0188.JPG","C31_IMG_0189.JPG","31",NA,"162"
"46",294858064,"chalverson22",53235309,"11.8",1,"T0",NA,1,"DEERWHITETAILED","1","NOSNOWBAREGROUND","NO",NA,NA,16695,"73998469",5,"beta test","C23_EK000127.JPG","C23_EK000128.JPG","C23_EK000129.JPG","23",NA,"88"
"47",294858262,"chalverson22",53235213,"11.8",1,"T0",NA,1,"DEERWHITETAILED","1","NOSNOWBAREGROUND","NO",NA,NA,16695,"73998286",5,"beta test","C13_IMG_0106.JPG","C13_IMG_0107.JPG","C13_IMG_0108.JPG","13",NA,"36"
"48",294858501,"chalverson22",53235361,"11.8",1,"T0",NA,1,"SKUNKSTRIPED","1","NOSNOWBAREGROUND",NA,NA,NA,16695,"73999492",5,"beta test","C31_IMG_0061.JPG","C31_IMG_0062.JPG","C31_IMG_0063.JPG","31",NA,"120"
"49",294858601,"not-logged-in-78e4f95ca68ce8aa4769",53235241,"11.8",1,"T0",NA,1,"FOXRED","1","NOSNOWBAREGROUND",NA,NA,NA,16695,"73999192",5,"beta test","C23_EK000013.JPG","C23_EK000014.JPG","C23_EK000015.JPG","23",NA,"50"
"50",294858605,"not-logged-in-814fc7b041b8d61802d5",53235319,"11.8",1,"T0",NA,1,"FOXRED","1","NOSNOWBAREGROUND",NA,NA,NA,16695,"73998796",5,"beta test","C25_EK000010.JPG","C25_EK000011.JPG","C25_EK000012.JPG","25",NA,"95"
"51",294858679,"chalverson22",53235290,"11.8",1,"T0",NA,1,"SQUIRRELGRAY","1","NOSNOWBAREGROUND",NA,NA,NA,16695,"73998095",5,"beta test","C23_EK000094.JPG","C23_EK000095.JPG","C23_EK000096.JPG","23",NA,"77"
"52",294858860,"chalverson22",53235155,"11.8",1,"T0",NA,1,"DEERWHITETAILED","1","NOSNOWBAREGROUND","NO",NA,NA,16695,"73999170",5,"beta test","C13_IMG_0040.JPG","C13_IMG_0041.JPG","C13_IMG_0042.JPG","13",NA,"14"
"53",294859089,"chalverson22",53235396,"11.8",1,"T0",NA,1,"OTHERSMALLMAMMAL","1","NOSNOWBAREGROUND",NA,NA,NA,16695,"73999509",5,"beta test","C31_IMG_0166.JPG","C31_IMG_0167.JPG","C31_IMG_0168.JPG","31",NA,"155"
"54",294859363,"Mulaffarabdullah",53235389,"11.8",1,"T0",NA,1,"BLUEJAY",NA,NA,NA,NA,NA,16695,"73998646",5,"beta test","C31_IMG_0145.JPG","C31_IMG_0146.JPG","C31_IMG_0147.JPG","31",NA,"148"
"55",294859460,"candrac",53235317,"11.8",1,"T0",NA,1,"DEERWHITETAILED","1","NOSNOWBAREGROUND","NO",NA,NA,16695,"73998726",5,"beta test","C25_EK000004.JPG","C25_EK000005.JPG","C25_EK000006.JPG","25",NA,"93"
"56",294859769,"not-logged-in-a962e514db4055ac3cc1",53235387,"11.8",1,"T0",NA,1,"WEASEL","1","NOSNOWBAREGROUND",NA,NA,NA,16695,"73998567",6,"beta test","C31_IMG_0139.JPG","C31_IMG_0140.JPG","C31_IMG_0141.JPG","31",NA,"146"
"57",294859780,"Robinson2491",53235323,"11.8",1,"T0",NA,1,"FOXGRAY","1","NOSNOWBAREGROUND",NA,NA,NA,16695,"73999148",5,"beta test","C25_EK000016.JPG","C25_EK000017.JPG","C25_EK000018.JPG","25",NA,"97"
"58",294859885,"not-logged-in-e69d5ca6ce42139f2244",53235388,"11.8",1,"T0",NA,1,"WEASEL","1","1020CM",NA,NA,NA,16695,"73999176",5,"beta test","C31_IMG_0142.JPG","C31_IMG_0143.JPG","C31_IMG_0144.JPG","31",NA,"147"
"59",294859961,"not-logged-in-a962e514db4055ac3cc1",53235179,"11.8",1,"T0",NA,1,"DEERWHITETAILED","1","NOSNOWBAREGROUND",NA,NA,NA,16695,"73998762",7,"beta test","C13_IMG_0070.JPG","C13_IMG_0071.JPG","C13_IMG_0072.JPG","13",NA,"24"
"60",294860150,"not-logged-in-a962e514db4055ac3cc1",53235316,"11.8",1,"T0",NA,1,"DEERWHITETAILED","1","NOSNOWBAREGROUND","NO",NA,NA,16695,"73998385",5,"beta test","C25_EK000002.JPG","C25_EK000001.JPG","C25_EK000003.JPG","25",NA,"92"
"61",294860317,"not-logged-in-a962e514db4055ac3cc1",53235307,"11.8",1,"T0",NA,1,"DEERWHITETAILED","1","NOSNOWBAREGROUND","NO",NA,NA,16695,"73998688",6,"beta test","C23_EK000124.JPG","C23_EK000125.JPG","C23_EK000126.JPG","23",NA,"87"
"62",294860393,"Mulaffarabdullah",53235350,"11.8",1,"T0",NA,1,"RACCOON","1","NOSNOWBAREGROUND",NA,NA,NA,16695,"73999583",5,"beta test","C31_IMG_0028.JPG","C31_IMG_0029.JPG","C31_IMG_0030.JPG","31",NA,"109"
"63",294860399,"candrac",53235213,"11.8",1,"T0",NA,1,"DEERWHITETAILED","1","NOSNOWBAREGROUND","NO",NA,NA,16695,"73998286",5,"beta test","C13_IMG_0106.JPG","C13_IMG_0107.JPG","C13_IMG_0108.JPG","13",NA,"36"
"64",294860559,"candrac",53235276,"11.8",1,"T0",NA,1,"DEERWHITETAILED","1","NOSNOWBAREGROUND","NO",NA,NA,16695,"73999383",5,"beta test","C23_EK000076.JPG","C23_EK000077.JPG","C23_EK000078.JPG","23",NA,"71"
"65",294860733,"Batfan",53235149,"11.8",1,"T0",NA,1,"DEERWHITETAILED","1","NOSNOWBAREGROUND","NO",NA,NA,16695,"73998151",5,"beta test","C13_IMG_0022.JPG","C13_IMG_0023.JPG","C13_IMG_0024.JPG","13",NA,"8"
"66",294860815,"candrac",53235361,"11.8",1,"T0",NA,1,"PORCUPINE","1","NOSNOWBAREGROUND",NA,NA,NA,16695,"73999492",5,"beta test","C31_IMG_0061.JPG","C31_IMG_0062.JPG","C31_IMG_0063.JPG","31",NA,"120"
"67",294860871,"not-logged-in-fa2e2f282ff8961b1c73",53235221,"11.8",1,"T0",NA,1,"DEERWHITETAILED","23","NOSNOWBAREGROUND","NO",NA,NA,16695,"73998220",5,"beta test","C13_IMG_0115.JPG","C13_IMG_0116.JPG","C13_IMG_0117.JPG","13",NA,"39"
"68",294860996,"Batfan",53235219,"11.8",1,"T0",NA,1,"DEERWHITETAILED","1","NOSNOWBAREGROUND","NO",NA,NA,16695,"73998278",6,"beta test","C13_IMG_0112.JPG","C13_IMG_0113.JPG","C13_IMG_0114.JPG","13",NA,"38"
"69",294861065,"candrac",53235360,"11.8",1,"T0",NA,1,"CHIPMUNK","1","NOSNOWBAREGROUND",NA,NA,NA,16695,"73998122",6,"beta test","C31_IMG_0058.JPG","C31_IMG_0059.JPG","C31_IMG_0060.JPG","31",NA,"119"
"70",294861235,"not-logged-in-a962e514db4055ac3cc1",53235413,"11.8",1,"T0",NA,1,"WEASEL","1","NOSNOWBAREGROUND",NA,NA,NA,16695,"73999116",7,"beta test","C31_IMG_0190.JPG","C31_IMG_0191.JPG","C31_IMG_0192.JPG","31",NA,"163"
"71",294861488,"Mulaffarabdullah",53235290,"11.8",1,"T0",NA,1,"CHIPMUNK","1","NOSNOWBAREGROUND",NA,NA,NA,16695,"73998095",5,"beta test","C23_EK000094.JPG","C23_EK000095.JPG","C23_EK000096.JPG","23",NA,"77"
"72",294861492,"Batfan",53235356,"11.8",1,"T0",NA,1,"OTHERSMALLMAMMAL","1","NOSNOWBAREGROUND",NA,NA,NA,16695,"73999571",6,"beta test","C31_IMG_0046.JPG","C31_IMG_0047.JPG","C31_IMG_0048.JPG","31",NA,"115"
"73",294861568,"not-logged-in-fa2e2f282ff8961b1c73",53235251,"11.8",1,"T0",NA,1,"CHIPMUNK","1","NOSNOWBAREGROUND",NA,NA,NA,16695,"73998953",6,"beta test","C23_EK000034.JPG","C23_EK000035.JPG","C23_EK000036.JPG","23",NA,"57"
"74",294861697,"not-logged-in-a962e514db4055ac3cc1",53235361,"11.8",1,"T0",NA,1,"PORCUPINE","1","NOSNOWBAREGROUND",NA,NA,NA,16695,"73999492",5,"beta test","C31_IMG_0061.JPG","C31_IMG_0062.JPG","C31_IMG_0063.JPG","31",NA,"120"
"75",294861782,"not-logged-in-fa2e2f282ff8961b1c73",53235384,"11.8",1,"T0",NA,1,"CHIPMUNK","1","NOSNOWBAREGROUND",NA,NA,NA,16695,"73998312",5,"beta test","C31_IMG_0130.JPG","C31_IMG_0131.JPG","C31_IMG_0132.JPG","31",NA,"143"
"76",294861822,"Mulaffarabdullah",53235151,"11.8",1,"T0",NA,1,"DEERWHITETAILED","1","NOSNOWBAREGROUND",NA,NA,NA,16695,"73998257",5,"beta test","C13_IMG_0028.JPG","C13_IMG_0029.JPG","C13_IMG_0030.JPG","13",NA,"10"
"77",294861824,"Batfan",53235222,"11.8",1,"T0",NA,1,"DEERWHITETAILED","23","NOSNOWBAREGROUND","NO",NA,NA,16695,"73999389",6,"beta test","C13_IMG_0118.JPG","C13_IMG_0119.JPG","C13_IMG_0120.JPG","13",NA,"40"
"78",294861973,"Mulaffarabdullah",53235318,"11.8",1,"T0",NA,1,"RACCOON","1","NOSNOWBAREGROUND",NA,NA,NA,16695,"73998717",5,"beta test","C25_EK000007.JPG","C25_EK000008.JPG","C25_EK000009.JPG","25",NA,"94"
"79",294862147,"Batfan",53235335,"11.8",1,"T0",NA,1,"OPOSSUM","1","NOSNOWBAREGROUND",NA,NA,NA,16695,"73999646",5,"beta test","C31_IMG_0007.JPG","C31_IMG_0008.JPG","C31_IMG_0009.JPG","31",NA,"102"
"80",294862324,"OrleoMarinaro",53235221,"11.8",1,"T0",NA,1,"DEERWHITETAILED","1","NOSNOWBAREGROUND","NO",NA,NA,16695,"73998220",5,"beta test","C13_IMG_0115.JPG","C13_IMG_0116.JPG","C13_IMG_0117.JPG","13",NA,"39"
"81",294862521,"Batfan",53235161,"11.8",1,"T0",NA,1,"DEERWHITETAILED","23","NOSNOWBAREGROUND","NO",NA,NA,16695,"73998345",6,"beta test","C13_IMG_0052.JPG","C13_IMG_0053.JPG","C13_IMG_0054.JPG","13",NA,"18"
"82",294862612,"OrleoMarinaro",53235417,"11.8",1,"T0",NA,1,"DEERWHITETAILED","1","1020CM","NO",NA,NA,16695,"73998430",5,"beta test","C31_IMG_0196.JPG","C31_IMG_0197.JPG","C31_IMG_0198.JPG","31",NA,"165"
"83",294862757,"Batfan",53235351,"11.8",1,"T0",NA,1,"DEERWHITETAILED","1","NOSNOWBAREGROUND","NO",NA,NA,16695,"73998152",5,"beta test","C31_IMG_0031.JPG","C31_IMG_0032.JPG","C31_IMG_0033.JPG","31",NA,"110"
"84",294862770,"Mulaffarabdullah",53235227,"11.8",1,"T0",NA,1,"WEASEL","1","NOSNOWBAREGROUND",NA,NA,NA,16695,"73999631",5,"beta test","C13_IMG_0124.JPG","C13_IMG_0125.JPG","C13_IMG_0126.JPG","13",NA,"42"
"85",294863111,"Mulaffarabdullah",53235395,"11.8",1,"T0",NA,1,"CHIPMUNK","1","NOSNOWBAREGROUND",NA,NA,NA,16695,"73999067",5,"beta test","C31_IMG_0163.JPG","C31_IMG_0164.JPG","C31_IMG_0165.JPG","31",NA,"154"
"86",294863124,"Batfan",53235401,"11.8",1,"T0",NA,1,"OTHERBIRD",NA,NA,NA,NA,NA,16695,"73998733",5,"beta test","C31_IMG_0175.JPG","C31_IMG_0176.JPG","C31_IMG_0177.JPG","31",NA,"158"
"87",294863659,"OcularSquirrel",53235396,"11.8",1,"T0",NA,1,"CHIPMUNK","1","NOSNOWBAREGROUND",NA,NA,NA,16695,"73999509",5,"beta test","C31_IMG_0166.JPG","C31_IMG_0167.JPG","C31_IMG_0168.JPG","31",NA,"155"
"88",294863702,"not-logged-in-063fbc1354687207d645",53235389,"11.8",1,"T0",NA,1,"BLUEJAY",NA,NA,NA,NA,NA,16695,"73998646",5,"beta test","C31_IMG_0145.JPG","C31_IMG_0146.JPG","C31_IMG_0147.JPG","31",NA,"148"
"89",294863891,"not-logged-in-7e342f4e3a56f0332d31",53235334,"11.8",1,"T0",NA,1,"DEERWHITETAILED","1","NOSNOWBAREGROUND","NO",NA,NA,16695,"73998093",7,"beta test","C31_IMG_0004.JPG","C31_IMG_0005.JPG","C31_IMG_0006.JPG","31",NA,"101"
"90",294864118,"not-logged-in-063fbc1354687207d645",53235349,"11.8",1,"T0",NA,1,"CHIPMUNK","1","NOSNOWBAREGROUND",NA,NA,NA,16695,"73998441",5,"beta test","C31_IMG_0025.JPG","C31_IMG_0026.JPG","C31_IMG_0027.JPG","31",NA,"108"
"91",294864353,"OcularSquirrel",53235378,"11.8",1,"T0",NA,1,"DEERWHITETAILED","1","NOSNOWBAREGROUND","NO",NA,NA,16695,"73998503",6,"beta test","C31_IMG_0112.JPG","C31_IMG_0113.JPG","C31_IMG_0114.JPG","31",NA,"137"
"92",294864819,"Batfan",53235276,"11.8",1,"T0",NA,1,"DEERWHITETAILED","1","NOSNOWBAREGROUND","NO",NA,NA,16695,"73999383",5,"beta test","C23_EK000076.JPG","C23_EK000077.JPG","C23_EK000078.JPG","23",NA,"71"
"93",294864948,"not-logged-in-9a904d2264ae57e9d91b",53235418,"11.8",1,"T0",NA,1,"DEERWHITETAILED","1","DUSTING10CM","NO",NA,NA,16695,"73998880",6,"beta test","C31_IMG_0199.JPG","C31_IMG_0200.JPG","C31_IMG_0201.JPG","31",NA,"166"
"94",294864964,"Batfan",53235228,"11.8",1,"T0",NA,1,"DEERWHITETAILED","1","NOSNOWBAREGROUND","NO",NA,NA,16695,"73998820",5,"beta test","C13_IMG_0127.JPG","C13_IMG_0128.JPG","C13_IMG_0129.JPG","13",NA,"43"
"95",294865132,"Dynamoj",53235266,"11.8",1,"T0",NA,1,"CHIPMUNK","1","NOSNOWBAREGROUND",NA,NA,NA,16695,"73999661",6,"beta test","C23_EK000058.JPG","C23_EK000059.JPG","C23_EK000060.JPG","23",NA,"65"
"96",294865458,"Batfan",53235317,"11.8",1,"T0",NA,1,"DEERWHITETAILED","1","NOSNOWBAREGROUND","NO",NA,NA,16695,"73998726",5,"beta test","C25_EK000004.JPG","C25_EK000005.JPG","C25_EK000006.JPG","25",NA,"93"
"97",294865894,"Dynamoj",53235406,"11.8",1,"T0",NA,1,"DEERWHITETAILED","1","NOSNOWBAREGROUND","YES",NA,NA,16695,"73998780",6,"beta test","C31_IMG_0181.JPG","C31_IMG_0182.JPG","C31_IMG_0183.JPG","31",NA,"160"
"98",294866938,"Batfan",53235285,"11.8",1,"T0",NA,1,"DEERWHITETAILED","1","NOSNOWBAREGROUND","NO",NA,NA,16695,"73998165",5,"beta test","C23_EK000088.JPG","C23_EK000089.JPG","C23_EK000090.JPG","23",NA,"75"
"99",294867118,"Matter01",53235389,"11.8",1,"T0",NA,1,"BLUEJAY",NA,NA,NA,NA,NA,16695,"73998646",5,"beta test","C31_IMG_0145.JPG","C31_IMG_0146.JPG","C31_IMG_0147.JPG","31",NA,"148"
"100",294867327,"Batfan",53235239,"11.8",1,"T0",NA,1,"COYOTE","1","NOSNOWBAREGROUND",NA,NA,NA,16695,"73999539",6,"beta test","C23_EK000010.JPG","C23_EK000011.JPG","C23_EK000012.JPG","23",NA,"49"
"101",294867496,"Matter01",53235338,"11.8",1,"T0",NA,1,"BLUEJAY",NA,NA,NA,NA,NA,16695,"73998929",5,"beta test","C31_IMG_0013.JPG","C31_IMG_0014.JPG","C31_IMG_0015.JPG","31",NA,"104"
"102",294867761,"OcularSquirrel",53235352,"11.8",1,"T0",NA,1,"OPOSSUM","1","NOSNOWBAREGROUND",NA,NA,NA,16695,"73998263",5,"beta test","C31_IMG_0034.JPG","C31_IMG_0035.JPG","C31_IMG_0036.JPG","31",NA,"111"
"103",294867839,"OcularSquirrel",53235305,"11.8",1,"T0",NA,1,"BLUEJAY",NA,NA,NA,NA,NA,16695,"73998195",5,"beta test","C23_EK000118.JPG","C23_EK000119.JPG","C23_EK000120.JPG","23",NA,"85"
"104",294867855,"Batfan",53235272,"11.8",1,"T0",NA,1,"CHIPMUNK","1","NOSNOWBAREGROUND",NA,NA,NA,16695,"73999221",5,"beta test","C23_EK000070.JPG","C23_EK000071.JPG","C23_EK000072.JPG","23",NA,"69"
"105",294868040,"Batfan",53235281,"11.8",1,"T0",NA,1,"DEERWHITETAILED","1","NOSNOWBAREGROUND","NO",NA,NA,16695,"73999447",5,"beta test","C23_EK000085.JPG","C23_EK000086.JPG","C23_EK000087.JPG","23",NA,"74"
"106",294868155,"Batfan",53235411,"11.8",1,"T0",NA,1,"DEERWHITETAILED","1","NOSNOWBAREGROUND","NO",NA,NA,16695,"73998139",5,"beta test","C31_IMG_0187.JPG","C31_IMG_0188.JPG","C31_IMG_0189.JPG","31",NA,"162"
"107",294868533,"Batfan",53235234,"11.8",1,"T0",NA,1,"OTHERSMALLMAMMAL","1","NOSNOWBAREGROUND",NA,NA,NA,16695,"73998824",5,"beta test","C23_EK000004.JPG","C23_EK000005.JPG","C23_EK000006.JPG","23",NA,"47"
"108",294868718,"Batfan",53235332,"11.8",1,"T0",NA,1,"DEERWHITETAILED","1","NOSNOWBAREGROUND","NO",NA,NA,16695,"73999014",5,"beta test","C31_IMG_0001.JPG","C31_IMG_0002.JPG","C31_IMG_0003.JPG","31",NA,"100"
"109",294868878,"Batfan",53235372,"11.8",1,"T0",NA,1,"DEERWHITETAILED","1","NOSNOWBAREGROUND","NO",NA,NA,16695,"73999630",5,"beta test","C31_IMG_0094.JPG","C31_IMG_0095.JPG","C31_IMG_0096.JPG","31",NA,"131"
"110",294869046,"izzyy",53235401,"11.8",1,"T0",NA,1,"OTHERBIRD",NA,NA,NA,NA,NA,16695,"73998733",5,"beta test","C31_IMG_0175.JPG","C31_IMG_0176.JPG","C31_IMG_0177.JPG","31",NA,"158"
"111",294869189,"KarenLongo",53235263,"11.8",1,"T0",NA,1,"RACCOON","1","NOSNOWBAREGROUND",NA,NA,NA,16695,"73999256",5,"beta test","C23_EK000052.JPG","C23_EK000053.JPG","C23_EK000054.JPG","23",NA,"63"
"112",294869401,"izzyy",53235261,"11.8",1,"T0",NA,1,"DEERWHITETAILED","1","NOSNOWBAREGROUND","NO",NA,NA,16695,"73999356",5,"beta test","C23_EK000049.JPG","C23_EK000050.JPG","C23_EK000051.JPG","23",NA,"62"
"113",294869433,"KarenLongo",53235151,"11.8",1,"T0",NA,1,"DEERWHITETAILED","1","NOSNOWBAREGROUND","NO",NA,NA,16695,"73998257",5,"beta test","C13_IMG_0028.JPG","C13_IMG_0029.JPG","C13_IMG_0030.JPG","13",NA,"10"
"114",294869703,"KarenLongo",53235213,"11.8",1,"T0",NA,1,"DEERWHITETAILED","1","NOSNOWBAREGROUND","NO",NA,NA,16695,"73998286",5,"beta test","C13_IMG_0106.JPG","C13_IMG_0107.JPG","C13_IMG_0108.JPG","13",NA,"36"
"115",294869800,"izzyy",53235144,"11.8",1,"T0",NA,1,"DEERWHITETAILED","1","NOSNOWBAREGROUND","NO",NA,NA,16695,"73999544",6,"beta test","C13_IMG_0007.JPG","C13_IMG_0008.JPG","C13_IMG_0009.JPG","13",NA,"3"
"116",294870169,"izzyy",53235243,"11.8",1,"T0",NA,1,"AMERICANPINEMARTEN","1","NOSNOWBAREGROUND",NA,NA,NA,16695,"73999600",5,"beta test","C23_EK000016.JPG","C23_EK000017.JPG","C23_EK000018.JPG","23",NA,"51"
"117",294870234,"KarenLongo",53235407,"11.8",1,"T0",NA,1,"DEERWHITETAILED","1","NOSNOWBAREGROUND","YES",NA,NA,16695,"73998739",7,"beta test","C31_IMG_0184.JPG","C31_IMG_0185.JPG","C31_IMG_0186.JPG","31",NA,"161"
"118",294870319,"KarenLongo",53235377,"11.8",1,"T0",NA,1,"CHIPMUNK","1","NOSNOWBAREGROUND",NA,NA,NA,16695,"73999209",6,"beta test","C31_IMG_0109.JPG","C31_IMG_0110.JPG","C31_IMG_0111.JPG","31",NA,"136"
"119",294870434,"izzyy",53235312,"11.8",1,"T0",NA,1,"AMERICANPINEMARTEN","1","DUSTING10CM",NA,NA,NA,16695,"73998642",6,"beta test","C23_EK000133.JPG","C23_EK000134.JPG","C23_EK000135.JPG","23",NA,"90"
"120",294870451,"KarenLongo",53235337,"11.8",1,"T0",NA,1,"BLUEJAY",NA,NA,NA,NA,NA,16695,"73999563",5,"beta test","C31_IMG_0010.JPG","C31_IMG_0011.JPG","C31_IMG_0012.JPG","31",NA,"103"
"121",294870600,"Sivlenora",53235307,"11.8",1,"T0",NA,1,"DEERWHITETAILED","1","DUSTING10CM",NA,NA,NA,16695,"73998688",6,"beta test","C23_EK000124.JPG","C23_EK000125.JPG","C23_EK000126.JPG","23",NA,"87"
"122",294870661,"KarenLongo",53235268,"11.8",1,"T0",NA,1,"CHIPMUNK","1","NOSNOWBAREGROUND",NA,NA,NA,16695,"73999302",5,"beta test","C23_EK000061.JPG","C23_EK000062.JPG","C23_EK000063.JPG","23",NA,"66"
"123",294870761,"KarenLongo",53235374,"11.8",1,"T0",NA,1,"CHIPMUNK","1","NOSNOWBAREGROUND",NA,NA,NA,16695,"73998714",6,"beta test","C31_IMG_0100.JPG","C31_IMG_0101.JPG","C31_IMG_0102.JPG","31",NA,"133"
"124",294870811,"izzyy",53235195,"11.8",1,"T0",NA,1,"DEERWHITETAILED","1","NOSNOWBAREGROUND","NO",NA,NA,16695,"73998741",5,"beta test","C13_IMG_0088.JPG","C13_IMG_0089.JPG","C13_IMG_0090.JPG","13",NA,"30"
"125",294870979,"KarenLongo",53235261,"11.8",1,"T0",NA,1,"DEERWHITETAILED","1","NOSNOWBAREGROUND","NO",NA,NA,16695,"73999356",5,"beta test","C23_EK000049.JPG","C23_EK000050.JPG","C23_EK000051.JPG","23",NA,"62"
"126",294871019,"izzyy",53235157,"11.8",1,"T0",NA,1,"DEERWHITETAILED","1","NOSNOWBAREGROUND","NO",NA,NA,16695,"73999111",5,"beta test","C13_IMG_0046.JPG","C13_IMG_0047.JPG","C13_IMG_0048.JPG","13",NA,"16"
"127",294871134,"KarenLongo",53235357,"11.8",1,"T0",NA,1,"CHIPMUNK","1","NOSNOWBAREGROUND",NA,NA,NA,16695,"73999560",5,"beta test","C31_IMG_0049.JPG","C31_IMG_0050.JPG","C31_IMG_0051.JPG","31",NA,"116"
"128",294871327,"KarenLongo",53235174,"11.8",1,"T0",NA,1,"DEERWHITETAILED","1","NOSNOWBAREGROUND",NA,NA,NA,16695,"73998854",6,"beta test","C13_IMG_0067.JPG","C13_IMG_0068.JPG","C13_IMG_0069.JPG","13",NA,"23"
"129",294871349,"roymarsden",53235256,"11.8",1,"T0",NA,1,"DEERWHITETAILED","1","NOSNOWBAREGROUND","NO",NA,NA,16695,"73999538",5,"beta test","C23_EK000043.JPG","C23_EK000044.JPG","C23_EK000045.JPG","23",NA,"60"
"130",294871371,"Sivlenora",53235306,"11.8",1,"T0",NA,1,"OTHERSMALLMAMMAL","1","DUSTING10CM",NA,NA,NA,16695,"73998581",6,"beta test","C23_EK000121.JPG","C23_EK000122.JPG","C23_EK000123.JPG","23",NA,"86"
"131",294871381,"izzyy",53235142,"11.8",1,"T0",NA,1,"HUMAN",NA,NA,NA,"1","RECREATIONALIST",16695,"73999348",5,"beta test","C13_IMG_0001.JPG","C13_IMG_0002.JPG","C13_IMG_0003.JPG","13",NA,"1"
"132",294871562,"roymarsden",53235234,"11.8",1,"T0",NA,1,"SQUIRRELGRAY","1","NOSNOWBAREGROUND",NA,NA,NA,16695,"73998824",5,"beta test","C23_EK000004.JPG","C23_EK000005.JPG","C23_EK000006.JPG","23",NA,"47"
"133",294871631,"KarenLongo",53235367,"11.8",1,"T0",NA,1,"CHIPMUNK","1","NOSNOWBAREGROUND",NA,NA,NA,16695,"73998307",5,"beta test","C31_IMG_0079.JPG","C31_IMG_0080.JPG","C31_IMG_0081.JPG","31",NA,"126"
"134",294871660,"izzyy",53235337,"11.8",1,"T0",NA,1,"BLUEJAY",NA,NA,NA,NA,NA,16695,"73999563",5,"beta test","C31_IMG_0010.JPG","C31_IMG_0011.JPG","C31_IMG_0012.JPG","31",NA,"103"
"135",294871732,"roymarsden",53235387,"11.8",1,"T0",NA,1,"AMERICANPINEMARTEN","1","NOSNOWBAREGROUND",NA,NA,NA,16695,"73998567",6,"beta test","C31_IMG_0139.JPG","C31_IMG_0140.JPG","C31_IMG_0141.JPG","31",NA,"146"
"136",294871791,"izzyy",53235199,"11.8",1,"T0",NA,1,"DEERWHITETAILED","1","NOSNOWBAREGROUND","NO",NA,NA,16695,"73998164",6,"beta test","C13_IMG_0094.JPG","C13_IMG_0095.JPG","C13_IMG_0096.JPG","13",NA,"32"
"137",294871793,"KarenLongo",53235228,"11.8",1,"T0",NA,1,"DEERWHITETAILED","1","NOSNOWBAREGROUND","NO",NA,NA,16695,"73998820",5,"beta test","C13_IMG_0127.JPG","C13_IMG_0128.JPG","C13_IMG_0129.JPG","13",NA,"43"
"138",294871939,"KarenLongo",53235150,"11.8",1,"T0",NA,1,"DEERWHITETAILED","1","NOSNOWBAREGROUND","NO",NA,NA,16695,"73999444",5,"beta test","C13_IMG_0025.JPG","C13_IMG_0026.JPG","C13_IMG_0027.JPG","13",NA,"9"
"139",294871976,"roymarsden",53235219,"11.8",1,"T0",NA,1,"DEERWHITETAILED","23","NOSNOWBAREGROUND","NO",NA,NA,16695,"73998278",6,"beta test","C13_IMG_0112.JPG","C13_IMG_0113.JPG","C13_IMG_0114.JPG","13",NA,"38"
"140",294872104,"roymarsden",53235347,"11.8",1,"T0",NA,1,"CHIPMUNK","1","NOSNOWBAREGROUND",NA,NA,NA,16695,"73999417",5,"beta test","C31_IMG_0022.JPG","C31_IMG_0023.JPG","C31_IMG_0024.JPG","31",NA,"107"
"141",294872106,"izzyy",53235191,"11.8",1,"T0",NA,1,"DEERWHITETAILED","1","NOSNOWBAREGROUND","NO",NA,NA,16695,"73998381",5,"beta test","C13_IMG_0082.JPG","C13_IMG_0083.JPG","C13_IMG_0084.JPG","13",NA,"28"
"142",294872261,"KarenLongo",53235198,"11.8",1,"T0",NA,1,"DEERWHITETAILED","1","NOSNOWBAREGROUND","NO",NA,NA,16695,"73999487",6,"beta test","C13_IMG_0091.JPG","C13_IMG_0092.JPG","C13_IMG_0093.JPG","13",NA,"31"
"143",294872507,"KarenLongo",53235319,"11.8",1,"T0",NA,1,"FOXGRAY","1","NOSNOWBAREGROUND",NA,NA,NA,16695,"73998796",5,"beta test","C25_EK000010.JPG","C25_EK000011.JPG","C25_EK000012.JPG","25",NA,"95"
"144",294872532,"OcularSquirrel",53235230,"11.8",1,"T0",NA,1,"DEERWHITETAILED","1","NOSNOWBAREGROUND","NO",NA,NA,16695,"73999566",5,"beta test","C13_IMG_0130.JPG","C13_IMG_0131.JPG","C13_IMG_0132.JPG","13",NA,"44"
"145",294872600,"KarenLongo",53235256,"11.8",1,"T0",NA,1,"DEERWHITETAILED","1","NOSNOWBAREGROUND","NO",NA,NA,16695,"73999538",5,"beta test","C23_EK000043.JPG","C23_EK000044.JPG","C23_EK000045.JPG","23",NA,"60"
"146",294872900,"OcularSquirrel",53235248,"11.8",1,"T0",NA,1,"CHIPMUNK","1","NOSNOWBAREGROUND",NA,NA,NA,16695,"73998458",6,"beta test","C23_EK000028.JPG","C23_EK000029.JPG","C23_EK000030.JPG","23",NA,"55"
"147",294873310,"Sivlenora",53235303,"11.8",1,"T0",NA,1,"OTHERSMALLMAMMAL","1","DUSTING10CM",NA,NA,NA,16695,"73998213",5,"beta test","C23_EK000115.JPG","C23_EK000116.JPG","C23_EK000117.JPG","23",NA,"84"
"148",294873587,"not-logged-in-48fb4ee16a0d8fb1473d",53235234,"11.8",1,"T0",NA,1,"OTHERSMALLMAMMAL","1","NOSNOWBAREGROUND",NA,NA,NA,16695,"73998824",5,"beta test","C23_EK000004.JPG","C23_EK000005.JPG","C23_EK000006.JPG","23",NA,"47"
"149",294873725,"not-logged-in-48fb4ee16a0d8fb1473d",53235211,"11.8",1,"T0",NA,1,"DEERWHITETAILED","1","NOSNOWBAREGROUND",NA,NA,NA,16695,"73998640",5,"beta test","C13_IMG_0103.JPG","C13_IMG_0104.JPG","C13_IMG_0105.JPG","13",NA,"35"
"150",294873859,"not-logged-in-48fb4ee16a0d8fb1473d",53235397,"11.8",1,"T0",NA,1,"SQUIRRELGRAY","1","NOSNOWBAREGROUND",NA,NA,NA,16695,"73998370",5,"beta test","C31_IMG_0169.JPG","C31_IMG_0170.JPG","C31_IMG_0171.JPG","31",NA,"156"
"151",294874289,"Sivlenora",53235164,"11.8",1,"T0",NA,1,"DEERWHITETAILED","1","NOSNOWBAREGROUND","NO",NA,NA,16695,"73998313",5,"beta test","C13_IMG_0058.JPG","C13_IMG_0059.JPG","C13_IMG_0060.JPG","13",NA,"20"
"152",294874442,"Sivlenora",53235276,"11.8",1,"T0",NA,1,"DEERWHITETAILED","1","DUSTING10CM","NO",NA,NA,16695,"73999383",5,"beta test","C23_EK000076.JPG","C23_EK000077.JPG","C23_EK000078.JPG","23",NA,"71"
"153",294874618,"not-logged-in-c72c5d217410d8e37adc",53235152,"11.8",1,"T0",NA,1,"DEERWHITETAILED","1","NOSNOWBAREGROUND","NO",NA,NA,16695,"73999614",5,"beta test","C13_IMG_0031.JPG","C13_IMG_0032.JPG","C13_IMG_0033.JPG","13",NA,"11"
"154",294874657,"not-logged-in-063fbc1354687207d645",53235406,"11.8",1,"T0",NA,1,"DEERWHITETAILED","1","NOSNOWBAREGROUND",NA,NA,NA,16695,"73998780",6,"beta test","C31_IMG_0181.JPG","C31_IMG_0182.JPG","C31_IMG_0183.JPG","31",NA,"160"
"155",294874730,"not-logged-in-063fbc1354687207d645",53235193,"11.8",1,"T0",NA,1,"DEERWHITETAILED","1","NOSNOWBAREGROUND","NO",NA,NA,16695,"73998189",5,"beta test","C13_IMG_0085.JPG","C13_IMG_0086.JPG","C13_IMG_0087.JPG","13",NA,"29"
"156",294874817,"not-logged-in-549ca041cf4ce804d630",53235393,"11.8",1,"T0",NA,1,"COYOTE","1","NOSNOWBAREGROUND",NA,NA,NA,16695,"73998958",6,"beta test","C31_IMG_0157.JPG","C31_IMG_0158.JPG","C31_IMG_0159.JPG","31",NA,"152"
"157",294874859,"jangugliotti",53235243,"11.8",1,"T0",NA,1,"FISHER","1","NOSNOWBAREGROUND",NA,NA,NA,16695,"73999600",5,"beta test","C23_EK000016.JPG","C23_EK000017.JPG","C23_EK000018.JPG","23",NA,"51"
"158",294874918,"not-logged-in-549ca041cf4ce804d630",53235316,"11.8",1,"T0",NA,1,"DEERWHITETAILED","1","NOSNOWBAREGROUND","NO",NA,NA,16695,"73998385",5,"beta test","C25_EK000002.JPG","C25_EK000001.JPG","C25_EK000003.JPG","25",NA,"92"
"159",294874995,"not-logged-in-063fbc1354687207d645",53235373,"11.8",1,"T0",NA,1,"COYOTE","1","NOSNOWBAREGROUND",NA,NA,NA,16695,"73998465",6,"beta test","C31_IMG_0097.JPG","C31_IMG_0098.JPG","C31_IMG_0099.JPG","31",NA,"132"
"160",294875014,"Sivlenora",53235320,"11.8",1,"T0",NA,1,"GROUSERUFFED",NA,NA,NA,NA,NA,16695,"73999365",5,"beta test","C25_EK000013.JPG","C25_EK000014.JPG","C25_EK000015.JPG","25",NA,"96"
"161",294875021,"jangugliotti",53235335,"11.8",1,"T0",NA,1,"OPOSSUM","1","NOSNOWBAREGROUND",NA,NA,NA,16695,"73999646",5,"beta test","C31_IMG_0007.JPG","C31_IMG_0008.JPG","C31_IMG_0009.JPG","31",NA,"102"
"162",294875023,"not-logged-in-549ca041cf4ce804d630",53235361,"11.8",1,"T0",NA,1,"PORCUPINE","1","NOSNOWBAREGROUND",NA,NA,NA,16695,"73999492",5,"beta test","C31_IMG_0061.JPG","C31_IMG_0062.JPG","C31_IMG_0063.JPG","31",NA,"120"
"163",294875056,"Bobbyboo",53235191,"11.8",1,"T0",NA,1,"DEERWHITETAILED","1","NOSNOWBAREGROUND","NO",NA,NA,16695,"73998381",5,"beta test","C13_IMG_0082.JPG","C13_IMG_0083.JPG","C13_IMG_0084.JPG","13",NA,"28"
"164",294875105,"not-logged-in-549ca041cf4ce804d630",53235149,"11.8",1,"T0",NA,1,"DEERWHITETAILED","1","NOSNOWBAREGROUND","NO",NA,NA,16695,"73998151",5,"beta test","C13_IMG_0022.JPG","C13_IMG_0023.JPG","C13_IMG_0024.JPG","13",NA,"8"
"165",294875114,"not-logged-in-063fbc1354687207d645",53235245,"11.8",1,"T0",NA,1,"OTHERSMALLMAMMAL","1","NOSNOWBAREGROUND",NA,NA,NA,16695,"73998777",6,"beta test","C23_EK000022.JPG","C23_EK000023.JPG","C23_EK000024.JPG","23",NA,"53"
"166",294875177,"not-logged-in-549ca041cf4ce804d630",53235158,"11.8",1,"T0",NA,1,"DEERWHITETAILED","1","NOSNOWBAREGROUND","NO",NA,NA,16695,"73999324",5,"beta test","C13_IMG_0049.JPG","C13_IMG_0050.JPG","C13_IMG_0051.JPG","13",NA,"17"
"167",294875201,"not-logged-in-063fbc1354687207d645",53235365,"11.8",1,"T0",NA,1,"CHIPMUNK","1","NOSNOWBAREGROUND",NA,NA,NA,16695,"73999430",5,"beta test","C31_IMG_0073.JPG","C31_IMG_0074.JPG","C31_IMG_0075.JPG","31",NA,"124"
"168",294875268,"not-logged-in-549ca041cf4ce804d630",53235221,"11.8",1,"T0",NA,1,"DEERWHITETAILED","1","NOSNOWBAREGROUND","NO",NA,NA,16695,"73998220",5,"beta test","C13_IMG_0115.JPG","C13_IMG_0116.JPG","C13_IMG_0117.JPG","13",NA,"39"
"169",294875297,"not-logged-in-063fbc1354687207d645",53235179,"11.8",1,"T0",NA,1,"DEERWHITETAILED","1","NOSNOWBAREGROUND","NO",NA,NA,16695,"73998762",7,"beta test","C13_IMG_0070.JPG","C13_IMG_0071.JPG","C13_IMG_0072.JPG","13",NA,"24"
"170",294875366,"not-logged-in-063fbc1354687207d645",53235158,"11.8",1,"T0",NA,1,"DEERWHITETAILED","1","NOSNOWBAREGROUND","NO",NA,NA,16695,"73999324",5,"beta test","C13_IMG_0049.JPG","C13_IMG_0050.JPG","C13_IMG_0051.JPG","13",NA,"17"
"171",294875416,"Sivlenora",53235347,"11.8",1,"T0",NA,1,"CHIPMUNK","1","NOSNOWBAREGROUND",NA,NA,NA,16695,"73999417",5,"beta test","C31_IMG_0022.JPG","C31_IMG_0023.JPG","C31_IMG_0024.JPG","31",NA,"107"
"172",294875536,"not-logged-in-549ca041cf4ce804d630",53235406,"11.8",1,"T0",NA,1,"DEERWHITETAILED","1","NOSNOWBAREGROUND","NO",NA,NA,16695,"73998780",6,"beta test","C31_IMG_0181.JPG","C31_IMG_0182.JPG","C31_IMG_0183.JPG","31",NA,"160"
"173",294875556,"Sivlenora",53235233,"11.8",1,"T0",NA,1,"HUMAN",NA,NA,NA,"1","CAMERATRAPPER",16695,"73999527",5,"beta test","C23_EK000001.JPG","C23_EK000002.JPG","C23_EK000003.JPG","23",NA,"46"
"174",294875681,"Bobbyboo",53235266,"11.8",1,"T0",NA,1,"CHIPMUNK","1","NOSNOWBAREGROUND",NA,NA,NA,16695,"73999661",6,"beta test","C23_EK000058.JPG","C23_EK000059.JPG","C23_EK000060.JPG","23",NA,"65"
"175",294875754,"not-logged-in-549ca041cf4ce804d630",53235248,"11.8",1,"T0",NA,1,"WEASEL","1","NOSNOWBAREGROUND",NA,NA,NA,16695,"73998458",6,"beta test","C23_EK000028.JPG","C23_EK000029.JPG","C23_EK000030.JPG","23",NA,"55"
"176",294875841,"not-logged-in-549ca041cf4ce804d630",53235400,"11.8",1,"T0",NA,1,"SQUIRRELGRAY","1","NOSNOWBAREGROUND",NA,NA,NA,16695,"73999334",7,"beta test","C31_IMG_0172.JPG","C31_IMG_0173.JPG","C31_IMG_0174.JPG","31",NA,"157"
"177",294875929,"jangugliotti",53235222,"11.8",1,"T0",NA,1,"DEERWHITETAILED","23","NOSNOWBAREGROUND",NA,NA,NA,16695,"73999389",6,"beta test","C13_IMG_0118.JPG","C13_IMG_0119.JPG","C13_IMG_0120.JPG","13",NA,"40"
"178",294876113,"not-logged-in-549ca041cf4ce804d630",53235352,"11.8",1,"T0",NA,1,"WEASEL","1","NOSNOWBAREGROUND",NA,NA,NA,16695,"73998263",5,"beta test","C31_IMG_0034.JPG","C31_IMG_0035.JPG","C31_IMG_0036.JPG","31",NA,"111"
"179",294876196,"not-logged-in-549ca041cf4ce804d630",53235334,"11.8",1,"T0",NA,1,"DEERWHITETAILED","1","NOSNOWBAREGROUND","NO",NA,NA,16695,"73998093",7,"beta test","C31_IMG_0004.JPG","C31_IMG_0005.JPG","C31_IMG_0006.JPG","31",NA,"101"
"180",294876267,"not-logged-in-549ca041cf4ce804d630",53235144,"11.8",1,"T0",NA,1,"DEERWHITETAILED","1","NOSNOWBAREGROUND","NO",NA,NA,16695,"73999544",6,"beta test","C13_IMG_0007.JPG","C13_IMG_0008.JPG","C13_IMG_0009.JPG","13",NA,"3"
"181",294876335,"not-logged-in-549ca041cf4ce804d630",53235272,"11.8",1,"T0",NA,1,"CHIPMUNK","1","NOSNOWBAREGROUND",NA,NA,NA,16695,"73999221",5,"beta test","C23_EK000070.JPG","C23_EK000071.JPG","C23_EK000072.JPG","23",NA,"69"
"182",294876339,"jangugliotti",53235279,"11.8",1,"T0",NA,1,"GROUSERUFFED",NA,NA,NA,NA,NA,16695,"73998973",6,"beta test","C23_EK000082.JPG","C23_EK000083.JPG","C23_EK000084.JPG","23",NA,"73"
"183",294876343,"Sivlenora",53235273,"11.8",1,"T0",NA,1,"CHIPMUNK","1","NOSNOWBAREGROUND",NA,NA,NA,16695,"73999391",5,"beta test","C23_EK000073.JPG","C23_EK000074.JPG","C23_EK000075.JPG","23",NA,"70"
"184",294876381,"not-logged-in-549ca041cf4ce804d630",53235219,"11.8",1,"T0",NA,1,"DEERWHITETAILED","1","NOSNOWBAREGROUND","NO",NA,NA,16695,"73998278",6,"beta test","C13_IMG_0112.JPG","C13_IMG_0113.JPG","C13_IMG_0114.JPG","13",NA,"38"
"185",294876549,"jangugliotti",53235245,"11.8",1,"T0",NA,1,"OTHERSMALLMAMMAL","1","DUSTING10CM",NA,NA,NA,16695,"73998777",6,"beta test","C23_EK000022.JPG","C23_EK000023.JPG","C23_EK000024.JPG","23",NA,"53"
"186",294876574,"Sivlenora",53235411,"11.8",1,"T0",NA,1,"DEERWHITETAILED","1","DUSTING10CM","YES",NA,NA,16695,"73998139",5,"beta test","C31_IMG_0187.JPG","C31_IMG_0188.JPG","C31_IMG_0189.JPG","31",NA,"162"
"187",294876682,"jangugliotti",53235406,"11.8",1,"T0",NA,1,"DEERWHITETAILED","1","NOSNOWBAREGROUND","NO",NA,NA,16695,"73998780",6,"beta test","C31_IMG_0181.JPG","C31_IMG_0182.JPG","C31_IMG_0183.JPG","31",NA,"160"
"188",294876933,"Sivlenora",53235205,"11.8",1,"T0",NA,1,"OTHERSMALLMAMMAL","1","NOSNOWBAREGROUND",NA,NA,NA,16695,"73999166",5,"beta test","C13_IMG_0097.JPG","C13_IMG_0098.JPG","C13_IMG_0099.JPG","13",NA,"33"
"189",294878621,"Bobbyboo",53235389,"11.8",1,"T0",NA,1,"OTHERBIRD",NA,NA,NA,NA,NA,16695,"73998646",5,"beta test","C31_IMG_0145.JPG","C31_IMG_0146.JPG","C31_IMG_0147.JPG","31",NA,"148"
"190",294879714,"not-logged-in-0fbf096d2bed784fd686",53235353,"11.8",1,"T0",NA,1,"OTHERSMALLMAMMAL","1","NOSNOWBAREGROUND",NA,NA,NA,16695,"73998355",6,"beta test","C31_IMG_0037.JPG","C31_IMG_0038.JPG","C31_IMG_0039.JPG","31",NA,"112"
"191",294879966,"not-logged-in-0fbf096d2bed784fd686",53235244,"11.8",1,"T0",NA,1,"SQUIRRELGRAY","1","NOSNOWBAREGROUND",NA,NA,NA,16695,"73998289",5,"beta test","C23_EK000019.JPG","C23_EK000020.JPG","C23_EK000021.JPG","23",NA,"52"
"192",294880310,"icemuon",53235360,"11.8",1,"T0",NA,1,"CHIPMUNK","1","NOSNOWBAREGROUND",NA,NA,NA,16695,"73998122",6,"beta test","C31_IMG_0058.JPG","C31_IMG_0059.JPG","C31_IMG_0060.JPG","31",NA,"119"
"193",294880462,"icemuon",53235193,"11.8",1,"T0",NA,1,"DEERWHITETAILED","1","NOSNOWBAREGROUND",NA,NA,NA,16695,"73998189",5,"beta test","C13_IMG_0085.JPG","C13_IMG_0086.JPG","C13_IMG_0087.JPG","13",NA,"29"
"194",294880794,"moonybears",53235418,"11.8",1,"T0",NA,1,"DEERWHITETAILED","1","DUSTING10CM",NA,NA,NA,16695,"73998880",6,"beta test","C31_IMG_0199.JPG","C31_IMG_0200.JPG","C31_IMG_0201.JPG","31",NA,"166"
"195",294880849,"icemuon",53235323,"11.8",1,"T0",NA,1,"FOXRED","1","NOSNOWBAREGROUND",NA,NA,NA,16695,"73999148",5,"beta test","C25_EK000016.JPG","C25_EK000017.JPG","C25_EK000018.JPG","25",NA,"97"
"196",294880935,"moonybears",53235332,"11.8",1,"T0",NA,1,"DEERWHITETAILED","1","NOSNOWBAREGROUND","NO",NA,NA,16695,"73999014",5,"beta test","C31_IMG_0001.JPG","C31_IMG_0002.JPG","C31_IMG_0003.JPG","31",NA,"100"
"197",294881124,"moonybears",53235315,"11.8",1,"T0",NA,1,"DEERWHITETAILED","1","DUSTING10CM","NO",NA,NA,16695,"73999154",6,"beta test","C23_EK000136.JPG","C23_EK000137.JPG","C23_EK000138.JPG","23",NA,"91"
"198",294882087,"moonybears",53235358,"11.8",1,"T0",NA,1,"OTHERBIRD",NA,NA,NA,NA,NA,16695,"73998234",5,"beta test","C31_IMG_0052.JPG","C31_IMG_0053.JPG","C31_IMG_0054.JPG","31",NA,"117"
"199",294882238,"moonybears",53235371,"11.8",1,"T0",NA,1,"OTHERSMALLMAMMAL","1","NOSNOWBAREGROUND",NA,NA,NA,16695,"73999101",7,"beta test","C31_IMG_0091.JPG","C31_IMG_0092.JPG","C31_IMG_0093.JPG","31",NA,"130"
"200",294882294,"OcularSquirrel",53235155,"11.8",1,"T0",NA,1,"DEERWHITETAILED","1","NOSNOWBAREGROUND","NO",NA,NA,16695,"73999170",5,"beta test","C13_IMG_0040.JPG","C13_IMG_0041.JPG","C13_IMG_0042.JPG","13",NA,"14"
"201",294882359,"moonybears",53235253,"11.8",1,"T0",NA,1,"CHIPMUNK","1","NOSNOWBAREGROUND",NA,NA,NA,16695,"73998120",5,"beta test","C23_EK000037.JPG","C23_EK000038.JPG","C23_EK000039.JPG","23",NA,"58"
"202",294882542,"moonybears",53235318,"11.8",1,"T0",NA,1,"RACCOON","1","NOSNOWBAREGROUND",NA,NA,NA,16695,"73998717",5,"beta test","C25_EK000007.JPG","C25_EK000008.JPG","C25_EK000009.JPG","25",NA,"94"
"203",294882620,"OcularSquirrel",53235164,"11.8",1,"T0",NA,1,"DEERWHITETAILED","1","NOSNOWBAREGROUND","NO",NA,NA,16695,"73998313",5,"beta test","C13_IMG_0058.JPG","C13_IMG_0059.JPG","C13_IMG_0060.JPG","13",NA,"20"
"204",294882626,"moonybears",53235305,"11.8",1,"T0",NA,1,"BLUEJAY",NA,NA,NA,NA,NA,16695,"73998195",5,"beta test","C23_EK000118.JPG","C23_EK000119.JPG","C23_EK000120.JPG","23",NA,"85"
"205",294882700,"OcularSquirrel",53235281,"11.8",1,"T0",NA,1,"DEERWHITETAILED","1","NOSNOWBAREGROUND","NO",NA,NA,16695,"73999447",5,"beta test","C23_EK000085.JPG","C23_EK000086.JPG","C23_EK000087.JPG","23",NA,"74"
"206",294882820,"moonybears",53235243,"11.8",1,"T0",NA,1,"FISHER","1","NOSNOWBAREGROUND",NA,NA,NA,16695,"73999600",5,"beta test","C23_EK000016.JPG","C23_EK000017.JPG","C23_EK000018.JPG","23",NA,"51"
"207",294882893,"moonybears",53235351,"11.8",1,"T0",NA,1,"DEERWHITETAILED","1","NOSNOWBAREGROUND",NA,NA,NA,16695,"73998152",5,"beta test","C31_IMG_0031.JPG","C31_IMG_0032.JPG","C31_IMG_0033.JPG","31",NA,"110"
"208",294882946,"moonybears",53235310,"11.8",1,"T0",NA,1,"DEERWHITETAILED","1","NOSNOWBAREGROUND",NA,NA,NA,16695,"73998859",5,"beta test","C23_EK000130.JPG","C23_EK000131.JPG","C23_EK000132.JPG","23",NA,"89"
"209",294883059,"moonybears",53235387,"11.8",1,"T0",NA,1,"OTHERSMALLMAMMAL","1","DUSTING10CM",NA,NA,NA,16695,"73998567",6,"beta test","C31_IMG_0139.JPG","C31_IMG_0140.JPG","C31_IMG_0141.JPG","31",NA,"146"
"210",294883067,"OcularSquirrel",53235151,"11.8",1,"T0",NA,1,"DEERWHITETAILED","1","NOSNOWBAREGROUND","NO",NA,NA,16695,"73998257",5,"beta test","C13_IMG_0028.JPG","C13_IMG_0029.JPG","C13_IMG_0030.JPG","13",NA,"10"
"211",294883400,"moonybears",53235303,"11.8",1,"T0",NA,1,"OTHERSMALLMAMMAL","1","DUSTING10CM",NA,NA,NA,16695,"73998213",5,"beta test","C23_EK000115.JPG","C23_EK000116.JPG","C23_EK000117.JPG","23",NA,"84"
"212",294889709,"not-logged-in-ab51fa936f0918af2175",53235372,"11.8",1,"T0",NA,1,"DEERWHITETAILED","1","NOSNOWBAREGROUND","NO",NA,NA,16695,"73999630",5,"beta test","C31_IMG_0094.JPG","C31_IMG_0095.JPG","C31_IMG_0096.JPG","31",NA,"131"
"213",294889908,"not-logged-in-ab51fa936f0918af2175",53235228,"11.8",1,"T0",NA,1,"DEERWHITETAILED","1","NOSNOWBAREGROUND","NO",NA,NA,16695,"73998820",5,"beta test","C13_IMG_0127.JPG","C13_IMG_0128.JPG","C13_IMG_0129.JPG","13",NA,"43"
"214",294890167,"not-logged-in-ab51fa936f0918af2175",53235318,"11.8",1,"T0",NA,1,"RACCOON","1","NOSNOWBAREGROUND",NA,NA,NA,16695,"73998717",5,"beta test","C25_EK000007.JPG","C25_EK000008.JPG","C25_EK000009.JPG","25",NA,"94"
"215",294890415,"not-logged-in-ab51fa936f0918af2175",53235347,"11.8",1,"T0",NA,1,"CHIPMUNK","1","NOSNOWBAREGROUND",NA,NA,NA,16695,"73999417",5,"beta test","C31_IMG_0022.JPG","C31_IMG_0023.JPG","C31_IMG_0024.JPG","31",NA,"107"
"216",294899638,"Resi",53235268,"11.8",1,"T0",NA,1,"SQUIRRELGRAY","1","NOSNOWBAREGROUND",NA,NA,NA,16695,"73999302",5,"beta test","C23_EK000061.JPG","C23_EK000062.JPG","C23_EK000063.JPG","23",NA,"66"
"217",294900395,"Resi",53235158,"11.8",1,"T0",NA,1,"DEERWHITETAILED","1","NOSNOWBAREGROUND","NO",NA,NA,16695,"73999324",5,"beta test","C13_IMG_0049.JPG","C13_IMG_0050.JPG","C13_IMG_0051.JPG","13",NA,"17"
"218",294900795,"Resi",53235259,"11.8",1,"T0",NA,1,"CHIPMUNK","1","NOSNOWBAREGROUND",NA,NA,NA,16695,"73999204",6,"beta test","C23_EK000046.JPG","C23_EK000047.JPG","C23_EK000048.JPG","23",NA,"61"
"219",294901133,"Resi",53235384,"11.8",1,"T0",NA,1,"CHIPMUNK","1","NOSNOWBAREGROUND",NA,NA,NA,16695,"73998312",5,"beta test","C31_IMG_0130.JPG","C31_IMG_0131.JPG","C31_IMG_0132.JPG","31",NA,"143"
"220",294901500,"Resi",53235151,"11.8",1,"T0",NA,1,"DEERWHITETAILED","1","NOSNOWBAREGROUND","NO",NA,NA,16695,"73998257",5,"beta test","C13_IMG_0028.JPG","C13_IMG_0029.JPG","C13_IMG_0030.JPG","13",NA,"10"
"221",294901772,"Resi",53235362,"11.8",1,"T0",NA,1,"CHIPMUNK","1","NOSNOWBAREGROUND",NA,NA,NA,16695,"73999530",5,"beta test","C31_IMG_0064.JPG","C31_IMG_0065.JPG","C31_IMG_0066.JPG","31",NA,"121"
"222",294902199,"Resi",53235285,"11.8",1,"T0",NA,1,"DEERWHITETAILED","1","NOSNOWBAREGROUND","NO",NA,NA,16695,"73998165",5,"beta test","C23_EK000088.JPG","C23_EK000089.JPG","C23_EK000090.JPG","23",NA,"75"
"223",294902443,"Resi",53235266,"11.8",1,"T0",NA,1,"CHIPMUNK","1","NOSNOWBAREGROUND",NA,NA,NA,16695,"73999661",6,"beta test","C23_EK000058.JPG","C23_EK000059.JPG","C23_EK000060.JPG","23",NA,"65"
"224",294902976,"Resi",53235377,"11.8",1,"T0",NA,1,"SQUIRRELRED","1","NOSNOWBAREGROUND",NA,NA,NA,16695,"73999209",6,"beta test","C31_IMG_0109.JPG","C31_IMG_0110.JPG","C31_IMG_0111.JPG","31",NA,"136"
"225",294903052,"KenzieN",53235306,"11.8",1,"T0",NA,1,"SQUIRRELGRAY","1","NOSNOWBAREGROUND",NA,NA,NA,16695,"73998581",6,"beta test","C23_EK000121.JPG","C23_EK000122.JPG","C23_EK000123.JPG","23",NA,"86"
"226",294903503,"Resi",53235248,"11.8",1,"T0",NA,1,"SQUIRRELRED","1","NOSNOWBAREGROUND",NA,NA,NA,16695,"73998458",6,"beta test","C23_EK000028.JPG","C23_EK000029.JPG","C23_EK000030.JPG","23",NA,"55"
"227",294903952,"Resi",53235233,"11.8",1,"T0",NA,1,"HUMAN",NA,NA,NA,"23","CAMERATRAPPER",16695,"73999527",5,"beta test","C23_EK000001.JPG","C23_EK000002.JPG","C23_EK000003.JPG","23",NA,"46"
"228",294904454,"Matter01",53235339,"11.8",1,"T0",NA,1,"SQUIRRELRED","1","NOSNOWBAREGROUND",NA,NA,NA,16695,"73999574",7,"beta test","C31_IMG_0016.JPG","C31_IMG_0017.JPG","C31_IMG_0018.JPG","31",NA,"105"
"229",294905438,"Resi",53235339,"11.8",1,"T0",NA,1,"AMERICANPINEMARTEN","1","NOSNOWBAREGROUND",NA,NA,NA,16695,"73999574",7,"beta test","C31_IMG_0016.JPG","C31_IMG_0017.JPG","C31_IMG_0018.JPG","31",NA,"105"
"230",294905820,"KenzieN",53235241,"11.8",1,"T0",NA,1,"DEERWHITETAILED","1","NOSNOWBAREGROUND","NO",NA,NA,16695,"73999192",5,"beta test","C23_EK000013.JPG","C23_EK000014.JPG","C23_EK000015.JPG","23",NA,"50"
"231",294905942,"Resi",53235357,"11.8",1,"T0",NA,1,"OTHERSMALLMAMMAL","1","NOSNOWBAREGROUND",NA,NA,NA,16695,"73999560",5,"beta test","C31_IMG_0049.JPG","C31_IMG_0050.JPG","C31_IMG_0051.JPG","31",NA,"116"
"232",294906039,"Matter01",53235341,"11.8",1,"T0",NA,1,"CHIPMUNK","1","NOSNOWBAREGROUND",NA,NA,NA,16695,"73999580",7,"beta test","C31_IMG_0019.JPG","C31_IMG_0020.JPG","C31_IMG_0021.JPG","31",NA,"106"
"233",294906435,"KenzieN",53235323,"11.8",1,"T0",NA,1,"FOXGRAY","1","NOSNOWBAREGROUND",NA,NA,NA,16695,"73999148",5,"beta test","C25_EK000016.JPG","C25_EK000017.JPG","C25_EK000018.JPG","25",NA,"97"
"234",294907070,"Matter01",53235356,"11.8",1,"T0",NA,1,"OTHERSMALLMAMMAL","1","NOSNOWBAREGROUND",NA,NA,NA,16695,"73999571",6,"beta test","C31_IMG_0046.JPG","C31_IMG_0047.JPG","C31_IMG_0048.JPG","31",NA,"115"
"235",294907956,"Matter01",53235407,"11.8",1,"T0",NA,1,"DEERWHITETAILED","1","NOSNOWBAREGROUND","YES",NA,NA,16695,"73998739",7,"beta test","C31_IMG_0184.JPG","C31_IMG_0185.JPG","C31_IMG_0186.JPG","31",NA,"161"
"236",294908125,"Resi",53235243,"11.8",1,"T0",NA,1,"FISHER","1","NOSNOWBAREGROUND",NA,NA,NA,16695,"73999600",5,"beta test","C23_EK000016.JPG","C23_EK000017.JPG","C23_EK000018.JPG","23",NA,"51"
"237",294908163,"not-logged-in-48fb4ee16a0d8fb1473d",53235266,"11.8",1,"T0",NA,1,"SQUIRRELGRAY","1","NOSNOWBAREGROUND",NA,NA,NA,16695,"73999661",6,"beta test","C23_EK000058.JPG","C23_EK000059.JPG","C23_EK000060.JPG","23",NA,"65"
"238",294908236,"Matter01",53235387,"11.8",1,"T0",NA,1,"OTHERSMALLMAMMAL","1","NOSNOWBAREGROUND",NA,NA,NA,16695,"73998567",6,"beta test","C31_IMG_0139.JPG","C31_IMG_0140.JPG","C31_IMG_0141.JPG","31",NA,"146"
"239",294908245,"Resi",53235382,"11.8",1,"T0",NA,1,"BLUEJAY",NA,NA,NA,NA,NA,16695,"73998132",6,"beta test","C31_IMG_0124.JPG","C31_IMG_0125.JPG","C31_IMG_0126.JPG","31",NA,"141"
"240",294908311,"not-logged-in-48fb4ee16a0d8fb1473d",53235317,"11.8",1,"T0",NA,1,"DEERWHITETAILED","1","NOSNOWBAREGROUND","NO",NA,NA,16695,"73998726",5,"beta test","C25_EK000004.JPG","C25_EK000005.JPG","C25_EK000006.JPG","25",NA,"93"
"241",294908555,"Resi",53235367,"11.8",1,"T0",NA,1,"OTHERSMALLMAMMAL","1","NOSNOWBAREGROUND",NA,NA,NA,16695,"73998307",5,"beta test","C31_IMG_0079.JPG","C31_IMG_0080.JPG","C31_IMG_0081.JPG","31",NA,"126"
"242",294908577,"not-logged-in-48fb4ee16a0d8fb1473d",53235195,"11.8",1,"T0",NA,1,"DEERWHITETAILED","1","NOSNOWBAREGROUND","NO",NA,NA,16695,"73998741",5,"beta test","C13_IMG_0088.JPG","C13_IMG_0089.JPG","C13_IMG_0090.JPG","13",NA,"30"
"243",294908696,"Matter01",53235239,"11.8",1,"T0",NA,1,"COYOTE","1","NOSNOWBAREGROUND",NA,NA,NA,16695,"73999539",6,"beta test","C23_EK000010.JPG","C23_EK000011.JPG","C23_EK000012.JPG","23",NA,"49"
"244",294908773,"Resi",53235191,"11.8",1,"T0",NA,1,"DEERWHITETAILED","1","NOSNOWBAREGROUND","NO",NA,NA,16695,"73998381",5,"beta test","C13_IMG_0082.JPG","C13_IMG_0083.JPG","C13_IMG_0084.JPG","13",NA,"28"
"245",294908791,"not-logged-in-48fb4ee16a0d8fb1473d",53235362,"11.8",1,"T0",NA,1,"CHIPMUNK","1","NOSNOWBAREGROUND",NA,NA,NA,16695,"73999530",5,"beta test","C31_IMG_0064.JPG","C31_IMG_0065.JPG","C31_IMG_0066.JPG","31",NA,"121"
"246",294909012,"Resi",53235279,"11.8",1,"T0",NA,1,"GROUSERUFFED",NA,NA,NA,NA,NA,16695,"73998973",6,"beta test","C23_EK000082.JPG","C23_EK000083.JPG","C23_EK000084.JPG","23",NA,"73"
"247",294909052,"not-logged-in-48fb4ee16a0d8fb1473d",53235395,"11.8",1,"T0",NA,1,"OTHERSMALLMAMMAL","1","NOSNOWBAREGROUND",NA,NA,NA,16695,"73999067",5,"beta test","C31_IMG_0163.JPG","C31_IMG_0164.JPG","C31_IMG_0165.JPG","31",NA,"154"
"248",294909168,"not-logged-in-48fb4ee16a0d8fb1473d",53235259,"11.8",1,"T0",NA,1,"CHIPMUNK","1","NOSNOWBAREGROUND",NA,NA,NA,16695,"73999204",6,"beta test","C23_EK000046.JPG","C23_EK000047.JPG","C23_EK000048.JPG","23",NA,"61"
"249",294909318,"Resi",53235206,"11.8",1,"T0",NA,1,"OTHERSMALLMAMMAL","1","NOSNOWBAREGROUND",NA,NA,NA,16695,"73998372",6,"beta test","C13_IMG_0100.JPG","C13_IMG_0101.JPG","C13_IMG_0102.JPG","13",NA,"34"
"250",294909411,"not-logged-in-48fb4ee16a0d8fb1473d",53235417,"11.8",1,"T0",NA,1,"DEERWHITETAILED","1","DUSTING10CM","NO",NA,NA,16695,"73998430",5,"beta test","C31_IMG_0196.JPG","C31_IMG_0197.JPG","C31_IMG_0198.JPG","31",NA,"165"
"251",294909688,"Resi",53235400,"11.8",1,"T0",NA,1,"SQUIRRELRED","1","NOSNOWBAREGROUND",NA,NA,NA,16695,"73999334",7,"beta test","C31_IMG_0172.JPG","C31_IMG_0173.JPG","C31_IMG_0174.JPG","31",NA,"157"
"252",294909690,"not-logged-in-48fb4ee16a0d8fb1473d",53235225,"11.8",1,"T0",NA,1,"DEERWHITETAILED","1","NOSNOWBAREGROUND","NO",NA,NA,16695,"73999320",6,"beta test","C13_IMG_0121.JPG","C13_IMG_0122.JPG","C13_IMG_0123.JPG","13",NA,"41"
"253",294909803,"Resi",53235341,"11.8",1,"T0",NA,1,"CHIPMUNK","1","NOSNOWBAREGROUND",NA,NA,NA,16695,"73999580",7,"beta test","C31_IMG_0019.JPG","C31_IMG_0020.JPG","C31_IMG_0021.JPG","31",NA,"106"
"254",294910126,"Resi",53235247,"11.8",1,"T0",NA,1,"MINK","1","NOSNOWBAREGROUND",NA,NA,NA,16695,"73999152",6,"beta test","C23_EK000025.JPG","C23_EK000026.JPG","C23_EK000027.JPG","23",NA,"54"
"255",294910175,"not-logged-in-48fb4ee16a0d8fb1473d",53235320,"11.8",1,"T0",NA,1,"OTHERBIRD",NA,NA,NA,NA,NA,16695,"73999365",5,"beta test","C25_EK000013.JPG","C25_EK000014.JPG","C25_EK000015.JPG","25",NA,"96"
"256",294910349,"not-logged-in-48fb4ee16a0d8fb1473d",53235315,"11.8",1,"T0",NA,1,"DEERWHITETAILED","1","DUSTING10CM","NO",NA,NA,16695,"73999154",6,"beta test","C23_EK000136.JPG","C23_EK000137.JPG","C23_EK000138.JPG","23",NA,"91"
"257",294910455,"Resi",53235256,"11.8",1,"T0",NA,1,"DEERWHITETAILED","1","NOSNOWBAREGROUND","NO",NA,NA,16695,"73999538",5,"beta test","C23_EK000043.JPG","C23_EK000044.JPG","C23_EK000045.JPG","23",NA,"60"
"258",294910519,"not-logged-in-48fb4ee16a0d8fb1473d",53235407,"11.8",1,"T0",NA,1,"DEERWHITETAILED","1","NOSNOWBAREGROUND","NO",NA,NA,16695,"73998739",7,"beta test","C31_IMG_0184.JPG","C31_IMG_0185.JPG","C31_IMG_0186.JPG","31",NA,"161"
"259",294910676,"Resi",53235396,"11.8",1,"T0",NA,1,"SQUIRRELRED","1","NOSNOWBAREGROUND",NA,NA,NA,16695,"73999509",5,"beta test","C31_IMG_0166.JPG","C31_IMG_0167.JPG","C31_IMG_0168.JPG","31",NA,"155"
"260",294910715,"not-logged-in-48fb4ee16a0d8fb1473d",53235400,"11.8",1,"T0",NA,1,"SQUIRRELRED","1","NOSNOWBAREGROUND",NA,NA,NA,16695,"73999334",7,"beta test","C31_IMG_0172.JPG","C31_IMG_0173.JPG","C31_IMG_0174.JPG","31",NA,"157"
"261",294910895,"not-logged-in-48fb4ee16a0d8fb1473d",53235276,"11.8",1,"T0",NA,1,"DEERWHITETAILED","1","NOSNOWBAREGROUND","NO",NA,NA,16695,"73999383",5,"beta test","C23_EK000076.JPG","C23_EK000077.JPG","C23_EK000078.JPG","23",NA,"71"
"262",294910908,"Resi",53235359,"11.8",1,"T0",NA,1,"FOXRED","1","NOSNOWBAREGROUND",NA,NA,NA,16695,"73998932",5,"beta test","C31_IMG_0055.JPG","C31_IMG_0056.JPG","C31_IMG_0057.JPG","31",NA,"118"
"263",294911029,"not-logged-in-48fb4ee16a0d8fb1473d",53235341,"11.8",1,"T0",NA,1,"CHIPMUNK","1","NOSNOWBAREGROUND",NA,NA,NA,16695,"73999580",7,"beta test","C31_IMG_0019.JPG","C31_IMG_0020.JPG","C31_IMG_0021.JPG","31",NA,"106"
"264",294911151,"not-logged-in-48fb4ee16a0d8fb1473d",53235332,"11.8",1,"T0",NA,1,"DEERWHITETAILED","1","NOSNOWBAREGROUND","NO",NA,NA,16695,"73999014",5,"beta test","C31_IMG_0001.JPG","C31_IMG_0002.JPG","C31_IMG_0003.JPG","31",NA,"100"
"265",294911279,"not-logged-in-48fb4ee16a0d8fb1473d",53235351,"11.8",1,"T0",NA,1,"DEERWHITETAILED","1","NOSNOWBAREGROUND","NO",NA,NA,16695,"73998152",5,"beta test","C31_IMG_0031.JPG","C31_IMG_0032.JPG","C31_IMG_0033.JPG","31",NA,"110"
"266",294911478,"not-logged-in-48fb4ee16a0d8fb1473d",53235354,"11.8",1,"T0",NA,1,"OTHERSMALLMAMMAL","1","NOSNOWBAREGROUND",NA,NA,NA,16695,"73998751",5,"beta test","C31_IMG_0040.JPG","C31_IMG_0041.JPG","C31_IMG_0042.JPG","31",NA,"113"
"267",294911544,"Resi",53235393,"11.8",1,"T0",NA,1,"FOXGRAY","1","NOSNOWBAREGROUND",NA,NA,NA,16695,"73998958",6,"beta test","C31_IMG_0157.JPG","C31_IMG_0158.JPG","C31_IMG_0159.JPG","31",NA,"152"
"268",294911655,"not-logged-in-48fb4ee16a0d8fb1473d",53235198,"11.8",1,"T0",NA,1,"DEERWHITETAILED","1","NOSNOWBAREGROUND","NO",NA,NA,16695,"73999487",6,"beta test","C13_IMG_0091.JPG","C13_IMG_0092.JPG","C13_IMG_0093.JPG","13",NA,"31"
"269",294911708,"Resi",53235230,"11.8",1,"T0",NA,1,"DEERWHITETAILED","1","NOSNOWBAREGROUND","NO",NA,NA,16695,"73999566",5,"beta test","C13_IMG_0130.JPG","C13_IMG_0131.JPG","C13_IMG_0132.JPG","13",NA,"44"
"270",294911814,"not-logged-in-48fb4ee16a0d8fb1473d",53235279,"11.8",1,"T0",NA,1,"GROUSERUFFED",NA,NA,NA,NA,NA,16695,"73998973",6,"beta test","C23_EK000082.JPG","C23_EK000083.JPG","C23_EK000084.JPG","23",NA,"73"
"271",294911867,"Resi",53235241,"11.8",1,"T0",NA,1,"DEERWHITETAILED","1","NOSNOWBAREGROUND",NA,NA,NA,16695,"73999192",5,"beta test","C23_EK000013.JPG","C23_EK000014.JPG","C23_EK000015.JPG","23",NA,"50"
"272",294911957,"Resi",53235157,"11.8",1,"T0",NA,1,"DEERWHITETAILED","1","NOSNOWBAREGROUND",NA,NA,NA,16695,"73999111",5,"beta test","C13_IMG_0046.JPG","C13_IMG_0047.JPG","C13_IMG_0048.JPG","13",NA,"16"
"273",294912040,"Resi",53235347,"11.8",1,"T0",NA,1,"CHIPMUNK","1","NOSNOWBAREGROUND",NA,NA,NA,16695,"73999417",5,"beta test","C31_IMG_0022.JPG","C31_IMG_0023.JPG","C31_IMG_0024.JPG","31",NA,"107"
"274",294912206,"not-logged-in-48fb4ee16a0d8fb1473d",53235318,"11.8",1,"T0",NA,1,"RACCOON","1","NOSNOWBAREGROUND",NA,NA,NA,16695,"73998717",5,"beta test","C25_EK000007.JPG","C25_EK000008.JPG","C25_EK000009.JPG","25",NA,"94"
"275",294912288,"Resi",53235417,"11.8",1,"T0",NA,1,"DEERWHITETAILED","1","DUSTING10CM","NO",NA,NA,16695,"73998430",5,"beta test","C31_IMG_0196.JPG","C31_IMG_0197.JPG","C31_IMG_0198.JPG","31",NA,"165"
"276",294912319,"not-logged-in-48fb4ee16a0d8fb1473d",53235154,"11.8",1,"T0",NA,1,"DEERWHITETAILED","1","NOSNOWBAREGROUND","NO",NA,NA,16695,"73999108",5,"beta test","C13_IMG_0037.JPG","C13_IMG_0038.JPG","C13_IMG_0039.JPG","13",NA,"13"
"277",294912407,"Resi",53235261,"11.8",1,"T0",NA,1,"DEERWHITETAILED","1","NOSNOWBAREGROUND","NO",NA,NA,16695,"73999356",5,"beta test","C23_EK000049.JPG","C23_EK000050.JPG","C23_EK000051.JPG","23",NA,"62"
"278",294912699,"Resi",53235374,"11.8",1,"T0",NA,1,"CHIPMUNK","1","NOSNOWBAREGROUND",NA,NA,NA,16695,"73998714",6,"beta test","C31_IMG_0100.JPG","C31_IMG_0101.JPG","C31_IMG_0102.JPG","31",NA,"133"
"279",294912709,"not-logged-in-48fb4ee16a0d8fb1473d",53235355,"11.8",1,"T0",NA,1,"OTHERSMALLMAMMAL","1","NOSNOWBAREGROUND",NA,NA,NA,16695,"73998311",6,"beta test","C31_IMG_0043.JPG","C31_IMG_0044.JPG","C31_IMG_0045.JPG","31",NA,"114"
"280",294912867,"not-logged-in-48fb4ee16a0d8fb1473d",53235174,"11.8",1,"T0",NA,1,"OTHERSMALLMAMMAL","1","NOSNOWBAREGROUND",NA,NA,NA,16695,"73998854",6,"beta test","C13_IMG_0067.JPG","C13_IMG_0068.JPG","C13_IMG_0069.JPG","13",NA,"23"
"281",294912874,"Resi",53235371,"11.8",1,"T0",NA,1,"OTHERSMALLMAMMAL","1","NOSNOWBAREGROUND",NA,NA,NA,16695,"73999101",7,"beta test","C31_IMG_0091.JPG","C31_IMG_0092.JPG","C31_IMG_0093.JPG","31",NA,"130"
"282",294912970,"Resi",53235316,"11.8",1,"T0",NA,1,"DEERWHITETAILED","1","NOSNOWBAREGROUND","NO",NA,NA,16695,"73998385",5,"beta test","C25_EK000002.JPG","C25_EK000001.JPG","C25_EK000003.JPG","25",NA,"92"
"283",294913048,"not-logged-in-48fb4ee16a0d8fb1473d",53235375,"11.8",1,"T0",NA,1,"SQUIRRELGRAY","1","NOSNOWBAREGROUND",NA,NA,NA,16695,"73998582",5,"beta test","C31_IMG_0103.JPG","C31_IMG_0104.JPG","C31_IMG_0105.JPG","31",NA,"134"
"284",294913221,"not-logged-in-48fb4ee16a0d8fb1473d",53235272,"11.8",1,"T0",NA,1,"CHIPMUNK","1","NOSNOWBAREGROUND",NA,NA,NA,16695,"73999221",5,"beta test","C23_EK000070.JPG","C23_EK000071.JPG","C23_EK000072.JPG","23",NA,"69"
"285",294913669,"not-logged-in-48fb4ee16a0d8fb1473d",53235393,"11.8",1,"T0",NA,1,"COYOTE","1","NOSNOWBAREGROUND",NA,NA,NA,16695,"73998958",6,"beta test","C31_IMG_0157.JPG","C31_IMG_0158.JPG","C31_IMG_0159.JPG","31",NA,"152"
"286",294913789,"not-logged-in-48fb4ee16a0d8fb1473d",53235157,"11.8",1,"T0",NA,1,"DEERWHITETAILED","1","NOSNOWBAREGROUND","NO",NA,NA,16695,"73999111",5,"beta test","C13_IMG_0046.JPG","C13_IMG_0047.JPG","C13_IMG_0048.JPG","13",NA,"16"
"287",294913924,"not-logged-in-48fb4ee16a0d8fb1473d",53235149,"11.8",1,"T0",NA,1,"DEERWHITETAILED","1","NOSNOWBAREGROUND","NO",NA,NA,16695,"73998151",5,"beta test","C13_IMG_0022.JPG","C13_IMG_0023.JPG","C13_IMG_0024.JPG","13",NA,"8"
"288",294914662,"not-logged-in-e578491fa6fe250219d9",53235211,"11.8",1,"T0",NA,1,"DEERWHITETAILED","1","NOSNOWBAREGROUND","NO",NA,NA,16695,"73998640",5,"beta test","C13_IMG_0103.JPG","C13_IMG_0104.JPG","C13_IMG_0105.JPG","13",NA,"35"
"289",294915183,"DPHughes",53235225,"11.8",1,"T0",NA,1,"DEERWHITETAILED","1","NOSNOWBAREGROUND","NO",NA,NA,16695,"73999320",6,"beta test","C13_IMG_0121.JPG","C13_IMG_0122.JPG","C13_IMG_0123.JPG","13",NA,"41"
"290",294915193,"not-logged-in-e578491fa6fe250219d9",53235353,"11.8",1,"T0",NA,1,"OTHERSMALLMAMMAL","1","NOSNOWBAREGROUND",NA,NA,NA,16695,"73998355",6,"beta test","C31_IMG_0037.JPG","C31_IMG_0038.JPG","C31_IMG_0039.JPG","31",NA,"112"
"291",294915405,"not-logged-in-e578491fa6fe250219d9",53235238,"11.8",1,"T0",NA,1,"CHIPMUNK","1","NOSNOWBAREGROUND",NA,NA,NA,16695,"73999421",5,"beta test","C23_EK000007.JPG","C23_EK000008.JPG","C23_EK000009.JPG","23",NA,"48"
"292",294915655,"not-logged-in-e578491fa6fe250219d9",53235341,"11.8",1,"T0",NA,1,"CHIPMUNK","1","NOSNOWBAREGROUND",NA,NA,NA,16695,"73999580",7,"beta test","C31_IMG_0019.JPG","C31_IMG_0020.JPG","C31_IMG_0021.JPG","31",NA,"106"
"293",294915839,"DPHughes",53235397,"11.8",1,"T0",NA,1,"SQUIRRELGRAY","1","NOSNOWBAREGROUND",NA,NA,NA,16695,"73998370",5,"beta test","C31_IMG_0169.JPG","C31_IMG_0170.JPG","C31_IMG_0171.JPG","31",NA,"156"
"294",294915956,"not-logged-in-e578491fa6fe250219d9",53235285,"11.8",1,"T0",NA,1,"DEERWHITETAILED","1","NOSNOWBAREGROUND","NO",NA,NA,16695,"73998165",5,"beta test","C23_EK000088.JPG","C23_EK000089.JPG","C23_EK000090.JPG","23",NA,"75"
"295",294916278,"DPHughes",53235310,"11.8",1,"T0",NA,1,"DEERWHITETAILED","1","NOSNOWBAREGROUND","NO",NA,NA,16695,"73998859",5,"beta test","C23_EK000130.JPG","C23_EK000131.JPG","C23_EK000132.JPG","23",NA,"89"
"296",294916294,"not-logged-in-e578491fa6fe250219d9",53235355,"11.8",1,"T0",NA,1,"OTHERSMALLMAMMAL","1","NOSNOWBAREGROUND",NA,NA,NA,16695,"73998311",6,"beta test","C31_IMG_0043.JPG","C31_IMG_0044.JPG","C31_IMG_0045.JPG","31",NA,"114"
"297",294916823,"DPHughes",53235167,"11.8",1,"T0",NA,1,"OTHERBIRD",NA,NA,NA,NA,NA,16695,"73998788",6,"beta test","C13_IMG_0061.JPG","C13_IMG_0062.JPG","C13_IMG_0063.JPG","13",NA,"21"
"298",294918117,"DPHughes",53235381,"11.8",1,"T0",NA,1,"OTHERBIRD",NA,NA,NA,NA,NA,16695,"73999037",7,"beta test","C31_IMG_0121.JPG","C31_IMG_0122.JPG","C31_IMG_0123.JPG","31",NA,"140"
"299",294918542,"DPHughes",53235222,"11.8",1,"T0",NA,1,"DEERWHITETAILED","23","NOSNOWBAREGROUND","NO",NA,NA,16695,"73999389",6,"beta test","C13_IMG_0118.JPG","C13_IMG_0119.JPG","C13_IMG_0120.JPG","13",NA,"40"
"300",294918807,"KarenLongo",53235339,"11.8",1,"T0",NA,1,"OTHERSMALLMAMMAL","1","NOSNOWBAREGROUND",NA,NA,NA,16695,"73999574",7,"beta test","C31_IMG_0016.JPG","C31_IMG_0017.JPG","C31_IMG_0018.JPG","31",NA,"105"
"301",294919046,"not-logged-in-a2a64da7a82ec4b0e790",53235312,"11.8",1,"T0",NA,1,"AMERICANPINEMARTEN","1","DUSTING10CM",NA,NA,NA,16695,"73998642",6,"beta test","C23_EK000133.JPG","C23_EK000134.JPG","C23_EK000135.JPG","23",NA,"90"
"302",294919297,"KarenLongo",53235143,"11.8",1,"T0",NA,1,"DEERWHITETAILED","1","NOSNOWBAREGROUND","NO",NA,NA,16695,"73998365",6,"beta test","C13_IMG_0004.JPG","C13_IMG_0005.JPG","C13_IMG_0006.JPG","13",NA,"2"
"303",294919755,"KenzieN",53235292,"11.8",1,"T0",NA,1,"SQUIRRELRED","1","NOSNOWBAREGROUND",NA,NA,NA,16695,"73999460",6,"beta test","C23_EK000097.JPG","C23_EK000098.JPG","C23_EK000099.JPG","23",NA,"78"
"304",294919922,"KarenLongo",53235153,"11.8",1,"T0",NA,1,"DEERWHITETAILED","1","NOSNOWBAREGROUND","NO",NA,NA,16695,"73998523",5,"beta test","C13_IMG_0034.JPG","C13_IMG_0035.JPG","C13_IMG_0036.JPG","13",NA,"12"
"305",294920153,"KarenLongo",53235154,"11.8",1,"T0",NA,1,"DEERWHITETAILED","1","NOSNOWBAREGROUND","NO",NA,NA,16695,"73999108",5,"beta test","C13_IMG_0037.JPG","C13_IMG_0038.JPG","C13_IMG_0039.JPG","13",NA,"13"
"306",294922622,"KenzieN",53235397,"11.8",1,"T0",NA,1,"SQUIRRELGRAY","1","NOSNOWBAREGROUND",NA,NA,NA,16695,"73998370",5,"beta test","C31_IMG_0169.JPG","C31_IMG_0170.JPG","C31_IMG_0171.JPG","31",NA,"156"
"307",294922811,"not-logged-in-7ca39cddeb4d09374df3",53235361,"11.8",1,"T0",NA,1,"PORCUPINE","1","NOSNOWBAREGROUND",NA,NA,NA,16695,"73999492",5,"beta test","C31_IMG_0061.JPG","C31_IMG_0062.JPG","C31_IMG_0063.JPG","31",NA,"120"
"308",294923369,"KenzieN",53235374,"11.8",1,"T0",NA,1,"CHIPMUNK","1","NOSNOWBAREGROUND",NA,NA,NA,16695,"73998714",6,"beta test","C31_IMG_0100.JPG","C31_IMG_0101.JPG","C31_IMG_0102.JPG","31",NA,"133"
"309",294923496,"Naturalwitch",53235370,"11.8",1,"T0",NA,1,"OTHERSMALLMAMMAL","1","NOSNOWBAREGROUND",NA,NA,NA,16695,"73999026",5,"beta test","C31_IMG_0088.JPG","C31_IMG_0089.JPG","C31_IMG_0090.JPG","31",NA,"129"
"310",294923500,"not-logged-in-7ca39cddeb4d09374df3",53235153,"11.8",1,"T0",NA,1,"DEERWHITETAILED","1","NOSNOWBAREGROUND","NO",NA,NA,16695,"73998523",5,"beta test","C13_IMG_0034.JPG","C13_IMG_0035.JPG","C13_IMG_0036.JPG","13",NA,"12"
"311",294923716,"KenzieN",53235276,"11.8",1,"T0",NA,1,"DEERWHITETAILED","1","NOSNOWBAREGROUND","NO",NA,NA,16695,"73999383",5,"beta test","C23_EK000076.JPG","C23_EK000077.JPG","C23_EK000078.JPG","23",NA,"71"
"312",294923721,"not-logged-in-7ca39cddeb4d09374df3",53235233,"11.8",1,"T0",NA,1,"HUMAN",NA,NA,NA,"1","CAMERATRAPPER",16695,"73999527",5,"beta test","C23_EK000001.JPG","C23_EK000002.JPG","C23_EK000003.JPG","23",NA,"46"
"313",294924213,"not-logged-in-7ca39cddeb4d09374df3",53235297,"11.8",1,"T0",NA,1,"COYOTE","1","NOSNOWBAREGROUND",NA,NA,NA,16695,"73998442",5,"beta test","C23_EK000106.JPG","C23_EK000107.JPG","C23_EK000108.JPG","23",NA,"81"
"314",294924520,"KenzieN",53235142,"11.8",1,"T0",NA,1,"HUMAN",NA,NA,NA,"1","OTHER",16695,"73999348",5,"beta test","C13_IMG_0001.JPG","C13_IMG_0002.JPG","C13_IMG_0003.JPG","13",NA,"1"
"315",294924605,"Naturalwitch",53235388,"11.8",1,"T0",NA,1,"OTHERBIRD",NA,NA,NA,NA,NA,16695,"73999176",5,"beta test","C31_IMG_0142.JPG","C31_IMG_0143.JPG","C31_IMG_0144.JPG","31",NA,"147"
"316",294924668,"not-logged-in-7ca39cddeb4d09374df3",53235211,"11.8",1,"T0",NA,1,"DEERWHITETAILED","1","NOSNOWBAREGROUND","NO",NA,NA,16695,"73998640",5,"beta test","C13_IMG_0103.JPG","C13_IMG_0104.JPG","C13_IMG_0105.JPG","13",NA,"35"
"317",294924841,"not-logged-in-7ca39cddeb4d09374df3",53235144,"11.8",1,"T0",NA,1,"DEERWHITETAILED","1","NOSNOWBAREGROUND","NO",NA,NA,16695,"73999544",6,"beta test","C13_IMG_0007.JPG","C13_IMG_0008.JPG","C13_IMG_0009.JPG","13",NA,"3"
"318",294925184,"not-logged-in-7ca39cddeb4d09374df3",53235397,"11.8",1,"T0",NA,1,"SQUIRRELGRAY","1","NOSNOWBAREGROUND",NA,NA,NA,16695,"73998370",5,"beta test","C31_IMG_0169.JPG","C31_IMG_0170.JPG","C31_IMG_0171.JPG","31",NA,"156"
"319",294925336,"KenzieN",53235339,"11.8",1,"T0",NA,1,"RACCOON","1","NOSNOWBAREGROUND",NA,NA,NA,16695,"73999574",7,"beta test","C31_IMG_0016.JPG","C31_IMG_0017.JPG","C31_IMG_0018.JPG","31",NA,"105"
"320",294925380,"not-logged-in-7ca39cddeb4d09374df3",53235316,"11.8",1,"T0",NA,1,"DEERWHITETAILED","1","NOSNOWBAREGROUND","NO",NA,NA,16695,"73998385",5,"beta test","C25_EK000002.JPG","C25_EK000001.JPG","C25_EK000003.JPG","25",NA,"92"
"321",294925527,"not-logged-in-7ca39cddeb4d09374df3",53235317,"11.8",1,"T0",NA,1,"DEERWHITETAILED","1","NOSNOWBAREGROUND","NO",NA,NA,16695,"73998726",5,"beta test","C25_EK000004.JPG","C25_EK000005.JPG","C25_EK000006.JPG","25",NA,"93"
"322",294925650,"KenzieN",53235309,"11.8",1,"T0",NA,1,"DEERWHITETAILED","1","NOSNOWBAREGROUND",NA,NA,NA,16695,"73998469",5,"beta test","C23_EK000127.JPG","C23_EK000128.JPG","C23_EK000129.JPG","23",NA,"88"
"323",294925741,"not-logged-in-7ca39cddeb4d09374df3",53235307,"11.8",1,"T0",NA,1,"DEERWHITETAILED","1","NOSNOWBAREGROUND","NO",NA,NA,16695,"73998688",6,"beta test","C23_EK000124.JPG","C23_EK000125.JPG","C23_EK000126.JPG","23",NA,"87"
"324",294925906,"not-logged-in-7ca39cddeb4d09374df3",53235318,"11.8",1,"T0",NA,1,"RACCOON","1","NOSNOWBAREGROUND",NA,NA,NA,16695,"73998717",5,"beta test","C25_EK000007.JPG","C25_EK000008.JPG","C25_EK000009.JPG","25",NA,"94"
"325",294925972,"KenzieN",53235248,"11.8",1,"T0",NA,1,"SQUIRRELGRAY","1","NOSNOWBAREGROUND",NA,NA,NA,16695,"73998458",6,"beta test","C23_EK000028.JPG","C23_EK000029.JPG","C23_EK000030.JPG","23",NA,"55"
"326",294926176,"KenzieN",53235317,"11.8",1,"T0",NA,1,"DEERWHITETAILED","1","NOSNOWBAREGROUND","NO",NA,NA,16695,"73998726",5,"beta test","C25_EK000004.JPG","C25_EK000005.JPG","C25_EK000006.JPG","25",NA,"93"
"327",294926267,"Naturalwitch",53235341,"11.8",1,"T0",NA,1,"CHIPMUNK","1","NOSNOWBAREGROUND",NA,NA,NA,16695,"73999580",7,"beta test","C31_IMG_0019.JPG","C31_IMG_0020.JPG","C31_IMG_0021.JPG","31",NA,"106"
"328",294926406,"KenzieN",53235341,"11.8",1,"T0",NA,1,"CHIPMUNK","1","NOSNOWBAREGROUND",NA,NA,NA,16695,"73999580",7,"beta test","C31_IMG_0019.JPG","C31_IMG_0020.JPG","C31_IMG_0021.JPG","31",NA,"106"
"329",294926455,"not-logged-in-7ca39cddeb4d09374df3",53235319,"11.8",1,"T0",NA,1,"FOXGRAY","1","NOSNOWBAREGROUND",NA,NA,NA,16695,"73998796",5,"beta test","C25_EK000010.JPG","C25_EK000011.JPG","C25_EK000012.JPG","25",NA,"95"
"330",294926541,"KenzieN",53235334,"11.8",1,"T0",NA,1,"DEERWHITETAILED","1","NOSNOWBAREGROUND","NO",NA,NA,16695,"73998093",7,"beta test","C31_IMG_0004.JPG","C31_IMG_0005.JPG","C31_IMG_0006.JPG","31",NA,"101"
"331",294927015,"KenzieN",53235247,"11.8",1,"T0",NA,1,"FOXRED","1","NOSNOWBAREGROUND",NA,NA,NA,16695,"73999152",6,"beta test","C23_EK000025.JPG","C23_EK000026.JPG","C23_EK000027.JPG","23",NA,"54"
"332",294927057,"not-logged-in-7ca39cddeb4d09374df3",53235186,"11.8",1,"T0",NA,1,"DEERWHITETAILED","1","NOSNOWBAREGROUND","NO",NA,NA,16695,"73998361",5,"beta test","C13_IMG_0079.JPG","C13_IMG_0080.JPG","C13_IMG_0081.JPG","13",NA,"27"
"333",294927063,"Naturalwitch",53235158,"11.8",1,"T0",NA,1,"DEERWHITETAILED","1","NOSNOWBAREGROUND","NO",NA,NA,16695,"73999324",5,"beta test","C13_IMG_0049.JPG","C13_IMG_0050.JPG","C13_IMG_0051.JPG","13",NA,"17"
"334",294927354,"KenzieN",53235268,"11.8",1,"T0",NA,1,"CHIPMUNK","1","NOSNOWBAREGROUND",NA,NA,NA,16695,"73999302",5,"beta test","C23_EK000061.JPG","C23_EK000062.JPG","C23_EK000063.JPG","23",NA,"66"
"335",294927404,"Naturalwitch",53235263,"11.8",1,"T0",NA,1,"RACCOON","1","NOSNOWBAREGROUND",NA,NA,NA,16695,"73999256",5,"beta test","C23_EK000052.JPG","C23_EK000053.JPG","C23_EK000054.JPG","23",NA,"63"
"336",294927510,"not-logged-in-7ca39cddeb4d09374df3",53235193,"11.8",1,"T0",NA,1,"DEERWHITETAILED","1","NOSNOWBAREGROUND","NO",NA,NA,16695,"73998189",5,"beta test","C13_IMG_0085.JPG","C13_IMG_0086.JPG","C13_IMG_0087.JPG","13",NA,"29"
"337",294927764,"KenzieN",53235375,"11.8",1,"T0",NA,1,"SQUIRRELRED","1","NOSNOWBAREGROUND",NA,NA,NA,16695,"73998582",5,"beta test","C31_IMG_0103.JPG","C31_IMG_0104.JPG","C31_IMG_0105.JPG","31",NA,"134"
"338",294927797,"Naturalwitch",53235151,"11.8",1,"T0",NA,1,"DEERWHITETAILED","1","NOSNOWBAREGROUND","NO",NA,NA,16695,"73998257",5,"beta test","C13_IMG_0028.JPG","C13_IMG_0029.JPG","C13_IMG_0030.JPG","13",NA,"10"
"339",294928045,"not-logged-in-7ca39cddeb4d09374df3",53235247,"11.8",1,"T0",NA,1,"FOXRED","1","NOSNOWBAREGROUND",NA,NA,NA,16695,"73999152",6,"beta test","C23_EK000025.JPG","C23_EK000026.JPG","C23_EK000027.JPG","23",NA,"54"
"340",294928371,"not-logged-in-7ca39cddeb4d09374df3",53235407,"11.8",1,"T0",NA,1,"DEERWHITETAILED","1","NOSNOWBAREGROUND","NO",NA,NA,16695,"73998739",7,"beta test","C31_IMG_0184.JPG","C31_IMG_0185.JPG","C31_IMG_0186.JPG","31",NA,"161"
"341",294929119,"Naturalwitch",53235371,"11.8",1,"T0",NA,1,"OTHERSMALLMAMMAL","23","NOSNOWBAREGROUND",NA,NA,NA,16695,"73999101",7,"beta test","C31_IMG_0091.JPG","C31_IMG_0092.JPG","C31_IMG_0093.JPG","31",NA,"130"
"342",294929288,"KenzieN",53235405,"11.8",1,"T0",NA,1,"OTHERSMALLMAMMAL","1","NOSNOWBAREGROUND",NA,NA,NA,16695,"73999071",5,"beta test","C31_IMG_0178.JPG","C31_IMG_0179.JPG","C31_IMG_0180.JPG","31",NA,"159"
"343",294929369,"not-logged-in-7ca39cddeb4d09374df3",53235389,"11.8",1,"T0",NA,1,"BLUEJAY",NA,NA,NA,NA,NA,16695,"73998646",5,"beta test","C31_IMG_0145.JPG","C31_IMG_0146.JPG","C31_IMG_0147.JPG","31",NA,"148"
"344",294929465,"KenzieN",53235150,"11.8",1,"T0",NA,1,"DEERWHITETAILED","1","NOSNOWBAREGROUND","NO",NA,NA,16695,"73999444",5,"beta test","C13_IMG_0025.JPG","C13_IMG_0026.JPG","C13_IMG_0027.JPG","13",NA,"9"
"345",294929855,"KenzieN",53235153,"11.8",1,"T0",NA,1,"DEERWHITETAILED","1","NOSNOWBAREGROUND",NA,NA,NA,16695,"73998523",5,"beta test","C13_IMG_0034.JPG","C13_IMG_0035.JPG","C13_IMG_0036.JPG","13",NA,"12"
"346",294930670,"KenzieN",53235379,"11.8",1,"T0",NA,1,"DEERWHITETAILED","3","NOSNOWBAREGROUND","NO",NA,NA,16695,"73999079",5,"beta test","C31_IMG_0115.JPG","C31_IMG_0116.JPG","C31_IMG_0117.JPG","31",NA,"138"
"347",294930829,"not-logged-in-7ca39cddeb4d09374df3",53235272,"11.8",1,"T0",NA,1,"CHIPMUNK","1","NOSNOWBAREGROUND",NA,NA,NA,16695,"73999221",5,"beta test","C23_EK000070.JPG","C23_EK000071.JPG","C23_EK000072.JPG","23",NA,"69"
"348",294930979,"KenzieN",53235373,"11.8",1,"T0",NA,1,"FOXGRAY","1","NOSNOWBAREGROUND",NA,NA,NA,16695,"73998465",6,"beta test","C31_IMG_0097.JPG","C31_IMG_0098.JPG","C31_IMG_0099.JPG","31",NA,"132"
"349",294931155,"not-logged-in-7ca39cddeb4d09374df3",53235378,"11.8",1,"T0",NA,1,"DEERWHITETAILED","1","NOSNOWBAREGROUND","NO",NA,NA,16695,"73998503",6,"beta test","C31_IMG_0112.JPG","C31_IMG_0113.JPG","C31_IMG_0114.JPG","31",NA,"137"
"350",294931384,"KenzieN",53235155,"11.8",1,"T0",NA,1,"DEERWHITETAILED","1","NOSNOWBAREGROUND","NO",NA,NA,16695,"73999170",5,"beta test","C13_IMG_0040.JPG","C13_IMG_0041.JPG","C13_IMG_0042.JPG","13",NA,"14"
"351",294931860,"KenzieN",53235382,"11.8",1,"T0",NA,1,"BLUEJAY",NA,NA,NA,NA,NA,16695,"73998132",6,"beta test","C31_IMG_0124.JPG","C31_IMG_0125.JPG","C31_IMG_0126.JPG","31",NA,"141"
"352",294931928,"not-logged-in-7ca39cddeb4d09374df3",53235413,"11.8",1,"T0",NA,1,"MINK","1","NOSNOWBAREGROUND",NA,NA,NA,16695,"73999116",7,"beta test","C31_IMG_0190.JPG","C31_IMG_0191.JPG","C31_IMG_0192.JPG","31",NA,"163"
"353",294932064,"KenzieN",53235238,"11.8",1,"T0",NA,1,"CHIPMUNK","1","NOSNOWBAREGROUND",NA,NA,NA,16695,"73999421",5,"beta test","C23_EK000007.JPG","C23_EK000008.JPG","C23_EK000009.JPG","23",NA,"48"
"354",294932175,"not-logged-in-7ca39cddeb4d09374df3",53235351,"11.8",1,"T0",NA,1,"DEERWHITETAILED","1","NOSNOWBAREGROUND","NO",NA,NA,16695,"73998152",5,"beta test","C31_IMG_0031.JPG","C31_IMG_0032.JPG","C31_IMG_0033.JPG","31",NA,"110"
"355",294932355,"footnotesoldier",53235155,"11.8",1,"T0",NA,1,"DEERWHITETAILED","1","NOSNOWBAREGROUND","NO",NA,NA,16695,"73999170",5,"beta test","C13_IMG_0040.JPG","C13_IMG_0041.JPG","C13_IMG_0042.JPG","13",NA,"14"
"356",294932753,"kochbs",53235150,"11.8",1,"T0",NA,1,"DEERWHITETAILED","1","NOSNOWBAREGROUND","NO",NA,NA,16695,"73999444",5,"beta test","C13_IMG_0025.JPG","C13_IMG_0026.JPG","C13_IMG_0027.JPG","13",NA,"9"
"357",294933037,"footnotesoldier",53235245,"11.8",1,"T0",NA,1,"OTHERSMALLMAMMAL","1","NOSNOWBAREGROUND",NA,NA,NA,16695,"73998777",6,"beta test","C23_EK000022.JPG","C23_EK000023.JPG","C23_EK000024.JPG","23",NA,"53"
"358",294933063,"not-logged-in-7ca39cddeb4d09374df3",53235417,"11.8",1,"T0",NA,1,"DEERWHITETAILED","1","DUSTING10CM","NO",NA,NA,16695,"73998430",5,"beta test","C31_IMG_0196.JPG","C31_IMG_0197.JPG","C31_IMG_0198.JPG","31",NA,"165"
"359",294933464,"not-logged-in-7ca39cddeb4d09374df3",53235367,"11.8",1,"T0",NA,1,"OTHERSMALLMAMMAL","1","NOSNOWBAREGROUND",NA,NA,NA,16695,"73998307",5,"beta test","C31_IMG_0079.JPG","C31_IMG_0080.JPG","C31_IMG_0081.JPG","31",NA,"126"
"360",294933733,"kochbs",53235401,"11.8",1,"T0",NA,1,"OTHERBIRD",NA,NA,NA,NA,NA,16695,"73998733",5,"beta test","C31_IMG_0175.JPG","C31_IMG_0176.JPG","C31_IMG_0177.JPG","31",NA,"158"
"361",294933750,"not-logged-in-7ca39cddeb4d09374df3",53235228,"11.8",1,"T0",NA,1,"DEERWHITETAILED","1","NOSNOWBAREGROUND","NO",NA,NA,16695,"73998820",5,"beta test","C13_IMG_0127.JPG","C13_IMG_0128.JPG","C13_IMG_0129.JPG","13",NA,"43"
"362",294934032,"not-logged-in-7ca39cddeb4d09374df3",53235277,"11.8",1,"T0",NA,1,"SQUIRRELGRAY","1","NOSNOWBAREGROUND",NA,NA,NA,16695,"73998470",6,"beta test","C23_EK000079.JPG","C23_EK000080.JPG","C23_EK000081.JPG","23",NA,"72"
"363",294934365,"not-logged-in-7ca39cddeb4d09374df3",53235268,"11.8",1,"T0",NA,1,"OTHERSMALLMAMMAL","1","NOSNOWBAREGROUND",NA,NA,NA,16695,"73999302",5,"beta test","C23_EK000061.JPG","C23_EK000062.JPG","C23_EK000063.JPG","23",NA,"66"
"364",294934620,"not-logged-in-7ca39cddeb4d09374df3",53235221,"11.8",1,"T0",NA,1,"DEERWHITETAILED","1","NOSNOWBAREGROUND","NO",NA,NA,16695,"73998220",5,"beta test","C13_IMG_0115.JPG","C13_IMG_0116.JPG","C13_IMG_0117.JPG","13",NA,"39"
"365",294934821,"not-logged-in-7ca39cddeb4d09374df3",53235285,"11.8",1,"T0",NA,1,"DEERWHITETAILED","1","NOSNOWBAREGROUND","NO",NA,NA,16695,"73998165",5,"beta test","C23_EK000088.JPG","C23_EK000089.JPG","C23_EK000090.JPG","23",NA,"75"
"366",294935505,"not-logged-in-7ca39cddeb4d09374df3",53235359,"11.8",1,"T0",NA,1,"FOXRED","1","NOSNOWBAREGROUND",NA,NA,NA,16695,"73998932",5,"beta test","C31_IMG_0055.JPG","C31_IMG_0056.JPG","C31_IMG_0057.JPG","31",NA,"118"
"367",294935615,"kochbs",53235295,"11.8",1,"T0",NA,1,"SKUNKSTRIPED","1","NOSNOWBAREGROUND",NA,NA,NA,16695,"73999279",5,"beta test","C23_EK000103.JPG","C23_EK000104.JPG","C23_EK000105.JPG","23",NA,"80"
"368",294935822,"kochbs",53235261,"11.8",1,"T0",NA,1,"DEERWHITETAILED","1","NOSNOWBAREGROUND","NO",NA,NA,16695,"73999356",5,"beta test","C23_EK000049.JPG","C23_EK000050.JPG","C23_EK000051.JPG","23",NA,"62"
"369",294935965,"not-logged-in-7ca39cddeb4d09374df3",53235273,"11.8",1,"T0",NA,1,"CHIPMUNK","1","NOSNOWBAREGROUND",NA,NA,NA,16695,"73999391",5,"beta test","C23_EK000073.JPG","C23_EK000074.JPG","C23_EK000075.JPG","23",NA,"70"
"370",294936657,"kochbs",53235371,"11.8",1,"T0",NA,1,"FOXRED","1","NOSNOWBAREGROUND",NA,NA,NA,16695,"73999101",7,"beta test","C31_IMG_0091.JPG","C31_IMG_0092.JPG","C31_IMG_0093.JPG","31",NA,"130"
"371",294937152,"not-logged-in-e9cee3e2bbf09a575192",53235350,"11.8",1,"T0",NA,1,"FISHER","1","NOSNOWBAREGROUND",NA,NA,NA,16695,"73999583",5,"beta test","C31_IMG_0028.JPG","C31_IMG_0029.JPG","C31_IMG_0030.JPG","31",NA,"109"
"372",294937318,"kochbs",53235168,"11.8",1,"T0",NA,1,"FOXGRAY","1","NOSNOWBAREGROUND",NA,NA,NA,16695,"73999525",5,"beta test","C13_IMG_0064.JPG","C13_IMG_0065.JPG","C13_IMG_0066.JPG","13",NA,"22"
"373",294938680,"kochbs",53235292,"11.8",1,"T0",NA,1,"SQUIRRELGRAY","1","NOSNOWBAREGROUND",NA,NA,NA,16695,"73999460",6,"beta test","C23_EK000097.JPG","C23_EK000098.JPG","C23_EK000099.JPG","23",NA,"78"
"374",294938763,"JMarchesoni",53235164,"11.8",1,"T0",NA,1,"DEERWHITETAILED","1","NOSNOWBAREGROUND","NO",NA,NA,16695,"73998313",5,"beta test","C13_IMG_0058.JPG","C13_IMG_0059.JPG","C13_IMG_0060.JPG","13",NA,"20"
"375",294938910,"kochbs",53235309,"11.8",1,"T0",NA,1,"DEERWHITETAILED","1","NOSNOWBAREGROUND","NO",NA,NA,16695,"73998469",5,"beta test","C23_EK000127.JPG","C23_EK000128.JPG","C23_EK000129.JPG","23",NA,"88"
"376",294939938,"kochbs",53235145,"11.8",1,"T0",NA,1,"OTHERBIRD",NA,NA,NA,NA,NA,16695,"73998606",5,"beta test","C13_IMG_0010.JPG","C13_IMG_0011.JPG","C13_IMG_0012.JPG","13",NA,"4"
"377",294940522,"kochbs",53235377,"11.8",1,"T0",NA,1,"SQUIRRELGRAY","1","NOSNOWBAREGROUND",NA,NA,NA,16695,"73999209",6,"beta test","C31_IMG_0109.JPG","C31_IMG_0110.JPG","C31_IMG_0111.JPG","31",NA,"136"
"378",294940981,"kochbs",53235368,"11.8",1,"T0",NA,1,"OTHERSMALLMAMMAL","1","NOSNOWBAREGROUND",NA,NA,NA,16695,"73999327",5,"beta test","C31_IMG_0082.JPG","C31_IMG_0083.JPG","C31_IMG_0084.JPG","31",NA,"127"
"379",294941445,"kochbs",53235193,"11.8",1,"T0",NA,1,"DEERWHITETAILED","1","NOSNOWBAREGROUND","YES",NA,NA,16695,"73998189",5,"beta test","C13_IMG_0085.JPG","C13_IMG_0086.JPG","C13_IMG_0087.JPG","13",NA,"29"
"380",294941593,"kochbs",53235305,"11.8",1,"T0",NA,1,"BLUEJAY",NA,NA,NA,NA,NA,16695,"73998195",5,"beta test","C23_EK000118.JPG","C23_EK000119.JPG","C23_EK000120.JPG","23",NA,"85"
"381",294942085,"kochbs",53235355,"11.8",1,"T0",NA,1,"OTHERSMALLMAMMAL","1","NOSNOWBAREGROUND",NA,NA,NA,16695,"73998311",6,"beta test","C31_IMG_0043.JPG","C31_IMG_0044.JPG","C31_IMG_0045.JPG","31",NA,"114"
"382",294942255,"kochbs",53235144,"11.8",1,"T0",NA,1,"DEERWHITETAILED","1","NOSNOWBAREGROUND","NO",NA,NA,16695,"73999544",6,"beta test","C13_IMG_0007.JPG","C13_IMG_0008.JPG","C13_IMG_0009.JPG","13",NA,"3"
"383",294942466,"kochbs",53235362,"11.8",1,"T0",NA,1,"CHIPMUNK","1","NOSNOWBAREGROUND",NA,NA,NA,16695,"73999530",5,"beta test","C31_IMG_0064.JPG","C31_IMG_0065.JPG","C31_IMG_0066.JPG","31",NA,"121"
"384",294942711,"kochbs",53235375,"11.8",1,"T0",NA,1,"SQUIRRELGRAY","1","NOSNOWBAREGROUND",NA,NA,NA,16695,"73998582",5,"beta test","C31_IMG_0103.JPG","C31_IMG_0104.JPG","C31_IMG_0105.JPG","31",NA,"134"
"385",294943003,"kochbs",53235244,"11.8",1,"T0",NA,1,"CHIPMUNK","1","NOSNOWBAREGROUND",NA,NA,NA,16695,"73998289",5,"beta test","C23_EK000019.JPG","C23_EK000020.JPG","C23_EK000021.JPG","23",NA,"52"
"386",294943235,"kochbs",53235251,"11.8",1,"T0",NA,1,"CHIPMUNK","1","NOSNOWBAREGROUND",NA,NA,NA,16695,"73998953",6,"beta test","C23_EK000034.JPG","C23_EK000035.JPG","C23_EK000036.JPG","23",NA,"57"
"387",294943519,"kochbs",53235364,"11.8",1,"T0",NA,1,"OTHERBIRD",NA,NA,NA,NA,NA,16695,"73999628",6,"beta test","C31_IMG_0070.JPG","C31_IMG_0071.JPG","C31_IMG_0072.JPG","31",NA,"123"
"388",294944166,"kochbs",53235379,"11.8",1,"T0",NA,1,"DEERWHITETAILED","3","NOSNOWBAREGROUND","NO",NA,NA,16695,"73999079",5,"beta test","C31_IMG_0115.JPG","C31_IMG_0116.JPG","C31_IMG_0117.JPG","31",NA,"138"
"389",294944413,"kochbs",53235315,"11.8",1,"T0",NA,1,"DEERWHITETAILED","1","NOSNOWBAREGROUND","NO",NA,NA,16695,"73999154",6,"beta test","C23_EK000136.JPG","C23_EK000137.JPG","C23_EK000138.JPG","23",NA,"91"
"390",294944832,"kochbs",53235146,"11.8",1,"T0",NA,1,"OTHERSMALLMAMMAL","1","NOSNOWBAREGROUND",NA,NA,NA,16695,"73998366",5,"beta test","C13_IMG_0013.JPG","C13_IMG_0014.JPG","C13_IMG_0015.JPG","13",NA,"5"
"391",294945033,"kochbs",53235391,"11.8",1,"T0",NA,1,"CHIPMUNK","1","NOSNOWBAREGROUND",NA,NA,NA,16695,"73999123",5,"beta test","C31_IMG_0151.JPG","C31_IMG_0152.JPG","C31_IMG_0153.JPG","31",NA,"150"
"392",294945743,"kochbs",53235413,"11.8",1,"T0",NA,1,"MINK","1","NOSNOWBAREGROUND",NA,NA,NA,16695,"73999116",7,"beta test","C31_IMG_0190.JPG","C31_IMG_0191.JPG","C31_IMG_0192.JPG","31",NA,"163"
"393",294946561,"kochbs",53235243,"11.8",1,"T0",NA,1,"MINK","1","NOSNOWBAREGROUND",NA,NA,NA,16695,"73999600",5,"beta test","C23_EK000016.JPG","C23_EK000017.JPG","C23_EK000018.JPG","23",NA,"51"
"394",294946744,"kochbs",53235354,"11.8",1,"T0",NA,1,"OTHERSMALLMAMMAL","1","NOSNOWBAREGROUND",NA,NA,NA,16695,"73998751",5,"beta test","C31_IMG_0040.JPG","C31_IMG_0041.JPG","C31_IMG_0042.JPG","31",NA,"113"
"395",294946940,"kochbs",53235225,"11.8",1,"T0",NA,1,"DEERWHITETAILED","1","NOSNOWBAREGROUND","NO",NA,NA,16695,"73999320",6,"beta test","C13_IMG_0121.JPG","C13_IMG_0122.JPG","C13_IMG_0123.JPG","13",NA,"41"
"396",294947041,"kochbs",53235418,"11.8",1,"T0",NA,1,"DEERWHITETAILED","1","NOSNOWBAREGROUND","NO",NA,NA,16695,"73998880",6,"beta test","C31_IMG_0199.JPG","C31_IMG_0200.JPG","C31_IMG_0201.JPG","31",NA,"166"
"397",294947150,"kochbs",53235363,"11.8",1,"T0",NA,1,"CHIPMUNK","1","NOSNOWBAREGROUND",NA,NA,NA,16695,"73998802",6,"beta test","C31_IMG_0067.JPG","C31_IMG_0068.JPG","C31_IMG_0069.JPG","31",NA,"122"
"398",294947305,"kochbs",53235306,"11.8",1,"T0",NA,1,"OTHERSMALLMAMMAL","1","NOSNOWBAREGROUND",NA,NA,NA,16695,"73998581",6,"beta test","C23_EK000121.JPG","C23_EK000122.JPG","C23_EK000123.JPG","23",NA,"86"
"399",294947484,"kochbs",53235228,"11.8",1,"T0",NA,1,"DEERWHITETAILED","1","NOSNOWBAREGROUND","NO",NA,NA,16695,"73998820",5,"beta test","C13_IMG_0127.JPG","C13_IMG_0128.JPG","C13_IMG_0129.JPG","13",NA,"43"
"400",294947632,"kochbs",53235256,"11.8",1,"T0",NA,1,"DEERWHITETAILED","1","NOSNOWBAREGROUND","NO",NA,NA,16695,"73999538",5,"beta test","C23_EK000043.JPG","C23_EK000044.JPG","C23_EK000045.JPG","23",NA,"60"
"401",294947838,"kochbs",53235382,"11.8",1,"T0",NA,1,"BLUEJAY",NA,NA,NA,NA,NA,16695,"73998132",6,"beta test","C31_IMG_0124.JPG","C31_IMG_0125.JPG","C31_IMG_0126.JPG","31",NA,"141"
"402",294947996,"kochbs",53235290,"11.8",1,"T0",NA,1,"SQUIRRELGRAY","1","NOSNOWBAREGROUND",NA,NA,NA,16695,"73998095",5,"beta test","C23_EK000094.JPG","C23_EK000095.JPG","C23_EK000096.JPG","23",NA,"77"
"403",294948158,"kochbs",53235255,"11.8",1,"T0",NA,1,"DEERWHITETAILED","1","NOSNOWBAREGROUND","NO",NA,NA,16695,"73999639",5,"beta test","C23_EK000040.JPG","C23_EK000041.JPG","C23_EK000042.JPG","23",NA,"59"
"404",294948278,"kochbs",53235281,"11.8",1,"T0",NA,1,"DEERWHITETAILED","1","NOSNOWBAREGROUND","NO",NA,NA,16695,"73999447",5,"beta test","C23_EK000085.JPG","C23_EK000086.JPG","C23_EK000087.JPG","23",NA,"74"
"405",294948400,"kochbs",53235351,"11.8",1,"T0",NA,1,"DEERWHITETAILED","1","NOSNOWBAREGROUND","NO",NA,NA,16695,"73998152",5,"beta test","C31_IMG_0031.JPG","C31_IMG_0032.JPG","C31_IMG_0033.JPG","31",NA,"110"
"406",294948531,"kochbs",53235167,"11.8",1,"T0",NA,1,"OTHERBIRD",NA,NA,NA,NA,NA,16695,"73998788",6,"beta test","C13_IMG_0061.JPG","C13_IMG_0062.JPG","C13_IMG_0063.JPG","13",NA,"21"
"407",294948738,"kochbs",53235294,"11.8",1,"T0",NA,1,"OTHERSMALLMAMMAL","1","NOSNOWBAREGROUND",NA,NA,NA,16695,"73998300",5,"beta test","C23_EK000100.JPG","C23_EK000101.JPG","C23_EK000102.JPG","23",NA,"79"
"408",294948890,"kochbs",53235332,"11.8",1,"T0",NA,1,"DEERWHITETAILED","1","NOSNOWBAREGROUND","NO",NA,NA,16695,"73999014",5,"beta test","C31_IMG_0001.JPG","C31_IMG_0002.JPG","C31_IMG_0003.JPG","31",NA,"100"
"409",294948998,"kochbs",53235214,"11.8",1,"T0",NA,1,"DEERWHITETAILED","1","NOSNOWBAREGROUND","NO",NA,NA,16695,"73998633",5,"beta test","C13_IMG_0109.JPG","C13_IMG_0110.JPG","C13_IMG_0111.JPG","13",NA,"37"
"410",294949503,"kochbs",53235227,"11.8",1,"T0",NA,1,"OTHERBIRD",NA,NA,NA,NA,NA,16695,"73999631",5,"beta test","C13_IMG_0124.JPG","C13_IMG_0125.JPG","C13_IMG_0126.JPG","13",NA,"42"
"411",294949620,"kochbs",53235310,"11.8",1,"T0",NA,1,"DEERWHITETAILED","1","NOSNOWBAREGROUND","NO",NA,NA,16695,"73998859",5,"beta test","C23_EK000130.JPG","C23_EK000131.JPG","C23_EK000132.JPG","23",NA,"89"
"412",294949778,"kochbs",53235406,"11.8",1,"T0",NA,1,"DEERWHITETAILED","1","NOSNOWBAREGROUND","YES",NA,NA,16695,"73998780",6,"beta test","C31_IMG_0181.JPG","C31_IMG_0182.JPG","C31_IMG_0183.JPG","31",NA,"160"
"413",294950039,"kochbs",53235384,"11.8",1,"T0",NA,1,"CHIPMUNK","1","NOSNOWBAREGROUND",NA,NA,NA,16695,"73998312",5,"beta test","C31_IMG_0130.JPG","C31_IMG_0131.JPG","C31_IMG_0132.JPG","31",NA,"143"
"414",294950159,"kochbs",53235143,"11.8",1,"T0",NA,1,"DEERWHITETAILED","1","NOSNOWBAREGROUND","NO",NA,NA,16695,"73998365",6,"beta test","C13_IMG_0004.JPG","C13_IMG_0005.JPG","C13_IMG_0006.JPG","13",NA,"2"
"415",294950284,"kochbs",53235360,"11.8",1,"T0",NA,1,"CHIPMUNK","1","NOSNOWBAREGROUND",NA,NA,NA,16695,"73998122",6,"beta test","C31_IMG_0058.JPG","C31_IMG_0059.JPG","C31_IMG_0060.JPG","31",NA,"119"
"416",294950894,"kochbs",53235302,"11.8",1,"T0",NA,1,"OTHERBIRD",NA,NA,NA,NA,NA,16695,"73999229",6,"beta test","C23_EK000112.JPG","C23_EK000113.JPG","C23_EK000114.JPG","23",NA,"83"
"417",294951025,"kochbs",53235374,"11.8",1,"T0",NA,1,"CHIPMUNK","1","NOSNOWBAREGROUND",NA,NA,NA,16695,"73998714",6,"beta test","C31_IMG_0100.JPG","C31_IMG_0101.JPG","C31_IMG_0102.JPG","31",NA,"133"
"418",294951361,"kochbs",53235148,"11.8",1,"T0",NA,1,"OTHERBIRD",NA,NA,NA,NA,NA,16695,"73998765",6,"beta test","C13_IMG_0019.JPG","C13_IMG_0020.JPG","C13_IMG_0021.JPG","13",NA,"7"
"419",294951570,"kochbs",53235367,"11.8",1,"T0",NA,1,"OTHERSMALLMAMMAL","1","NOSNOWBAREGROUND",NA,NA,NA,16695,"73998307",5,"beta test","C31_IMG_0079.JPG","C31_IMG_0080.JPG","C31_IMG_0081.JPG","31",NA,"126"
"420",294952486,"kochbs",53235373,"11.8",1,"T0",NA,1,"COYOTE","1","NOSNOWBAREGROUND",NA,NA,NA,16695,"73998465",6,"beta test","C31_IMG_0097.JPG","C31_IMG_0098.JPG","C31_IMG_0099.JPG","31",NA,"132"
"421",294952589,"kochbs",53235265,"11.8",1,"T0",NA,1,"CHIPMUNK","1","NOSNOWBAREGROUND",NA,NA,NA,16695,"73998685",6,"beta test","C23_EK000055.JPG","C23_EK000056.JPG","C23_EK000057.JPG","23",NA,"64"
"422",294952709,"kochbs",53235307,"11.8",1,"T0",NA,1,"DEERWHITETAILED","1","NOSNOWBAREGROUND","NO",NA,NA,16695,"73998688",6,"beta test","C23_EK000124.JPG","C23_EK000125.JPG","C23_EK000126.JPG","23",NA,"87"
"423",294953120,"kochbs",53235359,"11.8",1,"T0",NA,1,"COYOTE","1","NOSNOWBAREGROUND",NA,NA,NA,16695,"73998932",5,"beta test","C31_IMG_0055.JPG","C31_IMG_0056.JPG","C31_IMG_0057.JPG","31",NA,"118"
"424",294953244,"kochbs",53235238,"11.8",1,"T0",NA,1,"CHIPMUNK","1","NOSNOWBAREGROUND",NA,NA,NA,16695,"73999421",5,"beta test","C23_EK000007.JPG","C23_EK000008.JPG","C23_EK000009.JPG","23",NA,"48"
"425",294953507,"kochbs",53235395,"11.8",1,"T0",NA,1,"CHIPMUNK","1","NOSNOWBAREGROUND",NA,NA,NA,16695,"73999067",5,"beta test","C31_IMG_0163.JPG","C31_IMG_0164.JPG","C31_IMG_0165.JPG","31",NA,"154"
"426",294954764,"kochbs",53235323,"11.8",1,"T0",NA,1,"FOXGRAY","1","NOSNOWBAREGROUND",NA,NA,NA,16695,"73999148",5,"beta test","C25_EK000016.JPG","C25_EK000017.JPG","C25_EK000018.JPG","25",NA,"97"
"427",294954887,"Suem28",53235306,"11.8",1,"T0",NA,1,"OTHERSMALLMAMMAL","1","NOSNOWBAREGROUND",NA,NA,NA,16695,"73998581",6,"beta test","C23_EK000121.JPG","C23_EK000122.JPG","C23_EK000123.JPG","23",NA,"86"
"428",294954986,"kochbs",53235334,"11.8",1,"T0",NA,1,"DEERWHITETAILED","1","NOSNOWBAREGROUND","NO",NA,NA,16695,"73998093",7,"beta test","C31_IMG_0004.JPG","C31_IMG_0005.JPG","C31_IMG_0006.JPG","31",NA,"101"
"429",294955362,"Suem28",53235244,"11.8",1,"T0",NA,1,"CHIPMUNK","1","NOSNOWBAREGROUND",NA,NA,NA,16695,"73998289",5,"beta test","C23_EK000019.JPG","C23_EK000020.JPG","C23_EK000021.JPG","23",NA,"52"
"430",294955681,"Suem28",53235309,"11.8",1,"T0",NA,1,"DEERWHITETAILED","1","NOSNOWBAREGROUND",NA,NA,NA,16695,"73998469",5,"beta test","C23_EK000127.JPG","C23_EK000128.JPG","C23_EK000129.JPG","23",NA,"88"
"431",294955741,"kochbs",53235277,"11.8",1,"T0",NA,1,"AMERICANPINEMARTEN","1","NOSNOWBAREGROUND",NA,NA,NA,16695,"73998470",6,"beta test","C23_EK000079.JPG","C23_EK000080.JPG","C23_EK000081.JPG","23",NA,"72"
"432",294955918,"LizJ",53235332,"11.8",1,"T0",NA,1,"DEERWHITETAILED","1","NOSNOWBAREGROUND","NO",NA,NA,16695,"73999014",5,"beta test","C31_IMG_0001.JPG","C31_IMG_0002.JPG","C31_IMG_0003.JPG","31",NA,"100"
"433",294956034,"kochbs",53235163,"11.8",1,"T0",NA,1,"OTHERBIRD",NA,NA,NA,NA,NA,16695,"73998137",5,"beta test","C13_IMG_0055.JPG","C13_IMG_0056.JPG","C13_IMG_0057.JPG","13",NA,"19"
"434",294956229,"kochbs",53235205,"11.8",1,"T0",NA,1,"OTHERSMALLMAMMAL","1","NOSNOWBAREGROUND",NA,NA,NA,16695,"73999166",5,"beta test","C13_IMG_0097.JPG","C13_IMG_0098.JPG","C13_IMG_0099.JPG","13",NA,"33"
"435",294956508,"kochbs",53235325,"11.8",1,"T0",NA,1,"OTHERBIRD",NA,NA,NA,NA,NA,16695,"73999056",6,"beta test","C25_EK000019.JPG","C25_EK000020.JPG","C25_EK000021.JPG","25",NA,"98"
"436",294956647,"kochbs",53235147,"11.8",1,"T0",NA,1,"DEERWHITETAILED","1","NOSNOWBAREGROUND","NO",NA,NA,16695,"73998985",5,"beta test","C13_IMG_0016.JPG","C13_IMG_0017.JPG","C13_IMG_0018.JPG","13",NA,"6"
"437",294956741,"kochbs",53235372,"11.8",1,"T0",NA,1,"DEERWHITETAILED","1","NOSNOWBAREGROUND","NO",NA,NA,16695,"73999630",5,"beta test","C31_IMG_0094.JPG","C31_IMG_0095.JPG","C31_IMG_0096.JPG","31",NA,"131"
"438",294956913,"LizJ",53235417,"11.8",1,"T0",NA,1,"DEERWHITETAILED","1","DUSTING10CM","NO",NA,NA,16695,"73998430",5,"beta test","C31_IMG_0196.JPG","C31_IMG_0197.JPG","C31_IMG_0198.JPG","31",NA,"165"
"439",294957004,"kochbs",53235396,"11.8",1,"T0",NA,1,"SQUIRRELGRAY","1","NOSNOWBAREGROUND",NA,NA,NA,16695,"73999509",5,"beta test","C31_IMG_0166.JPG","C31_IMG_0167.JPG","C31_IMG_0168.JPG","31",NA,"155"
"440",294957111,"LizJ",53235152,"11.8",1,"T0",NA,1,"DEERWHITETAILED","1","NOSNOWBAREGROUND","NO",NA,NA,16695,"73999614",5,"beta test","C13_IMG_0031.JPG","C13_IMG_0032.JPG","C13_IMG_0033.JPG","13",NA,"11"
"441",294957256,"LizJ",53235182,"11.8",1,"T0",NA,1,"DEERWHITETAILED","1","NOSNOWBAREGROUND","NO",NA,NA,16695,"73999096",5,"beta test","C13_IMG_0076.JPG","C13_IMG_0077.JPG","C13_IMG_0078.JPG","13",NA,"26"
"442",294957320,"kochbs",53235245,"11.8",1,"T0",NA,1,"OTHERSMALLMAMMAL","1","NOSNOWBAREGROUND",NA,NA,NA,16695,"73998777",6,"beta test","C23_EK000022.JPG","C23_EK000023.JPG","C23_EK000024.JPG","23",NA,"53"
"443",294957416,"LizJ",53235285,"11.8",1,"T0",NA,1,"DEERWHITETAILED","1","NOSNOWBAREGROUND","NO",NA,NA,16695,"73998165",5,"beta test","C23_EK000088.JPG","C23_EK000089.JPG","C23_EK000090.JPG","23",NA,"75"
"444",294957510,"kochbs",53235329,"11.8",1,"T0",NA,1,"OTHERBIRD",NA,NA,NA,NA,NA,16695,"73999040",5,"beta test","C25_EK000022.JPG","C25_EK000023.JPG","C25_EK000024.JPG","25",NA,"99"
"445",294957640,"LizJ",53235379,"11.8",1,"T0",NA,1,"DEERWHITETAILED","23","NOSNOWBAREGROUND","NO",NA,NA,16695,"73999079",5,"beta test","C31_IMG_0115.JPG","C31_IMG_0116.JPG","C31_IMG_0117.JPG","31",NA,"138"
"446",294957679,"kochbs",53235393,"11.8",1,"T0",NA,1,"COYOTE","1","NOSNOWBAREGROUND",NA,NA,NA,16695,"73998958",6,"beta test","C31_IMG_0157.JPG","C31_IMG_0158.JPG","C31_IMG_0159.JPG","31",NA,"152"
"447",294957804,"kochbs",53235273,"11.8",1,"T0",NA,1,"CHIPMUNK","1","NOSNOWBAREGROUND",NA,NA,NA,16695,"73999391",5,"beta test","C23_EK000073.JPG","C23_EK000074.JPG","C23_EK000075.JPG","23",NA,"70"
"448",294958030,"kochbs",53235335,"11.8",1,"T0",NA,1,"OPOSSUM","1","NOSNOWBAREGROUND",NA,NA,NA,16695,"73999646",5,"beta test","C31_IMG_0007.JPG","C31_IMG_0008.JPG","C31_IMG_0009.JPG","31",NA,"102"
"449",294958360,"kochbs",53235289,"11.8",1,"T0",NA,1,"OTHERBIRD",NA,NA,NA,NA,NA,16695,"73999232",6,"beta test","C23_EK000091.JPG","C23_EK000092.JPG","C23_EK000093.JPG","23",NA,"76"
"450",294958416,"kochbs",53235266,"11.8",1,"T0",NA,1,"CHIPMUNK","1","NOSNOWBAREGROUND",NA,NA,NA,16695,"73999661",6,"beta test","C23_EK000058.JPG","C23_EK000059.JPG","C23_EK000060.JPG","23",NA,"65"
"451",294958510,"kochbs",53235234,"11.8",1,"T0",NA,1,"OTHERSMALLMAMMAL","1","NOSNOWBAREGROUND",NA,NA,NA,16695,"73998824",5,"beta test","C23_EK000004.JPG","C23_EK000005.JPG","C23_EK000006.JPG","23",NA,"47"
"452",294958599,"kochbs",53235157,"11.8",1,"T0",NA,1,"DEERWHITETAILED","1","NOSNOWBAREGROUND","NO",NA,NA,16695,"73999111",5,"beta test","C13_IMG_0046.JPG","C13_IMG_0047.JPG","C13_IMG_0048.JPG","13",NA,"16"
"453",294958980,"kochbs",53235320,"11.8",1,"T0",NA,1,"GROUSERUFFED",NA,NA,NA,NA,NA,16695,"73999365",5,"beta test","C25_EK000013.JPG","C25_EK000014.JPG","C25_EK000015.JPG","25",NA,"96"
"454",294959273,"kochbs",53235376,"11.8",1,"T0",NA,1,"CHIPMUNK","1","NOSNOWBAREGROUND",NA,NA,NA,16695,"73999608",5,"beta test","C31_IMG_0106.JPG","C31_IMG_0107.JPG","C31_IMG_0108.JPG","31",NA,"135"
"455",294959443,"kochbs",53235155,"11.8",1,"T0",NA,1,"DEERWHITETAILED","23","NOSNOWBAREGROUND","NO",NA,NA,16695,"73999170",5,"beta test","C13_IMG_0040.JPG","C13_IMG_0041.JPG","C13_IMG_0042.JPG","13",NA,"14"
"456",294959583,"kochbs",53235156,"11.8",1,"T0",NA,1,"OTHERSMALLMAMMAL","1","NOSNOWBAREGROUND",NA,NA,NA,16695,"73998380",5,"beta test","C13_IMG_0043.JPG","C13_IMG_0044.JPG","C13_IMG_0045.JPG","13",NA,"15"
"457",294959678,"kochbs",53235149,"11.8",1,"T0",NA,1,"DEERWHITETAILED","1","NOSNOWBAREGROUND","NO",NA,NA,16695,"73998151",5,"beta test","C13_IMG_0022.JPG","C13_IMG_0023.JPG","C13_IMG_0024.JPG","13",NA,"8"
"458",294959802,"kochbs",53235219,"11.8",1,"T0",NA,1,"DEERWHITETAILED","23","NOSNOWBAREGROUND","NO",NA,NA,16695,"73998278",6,"beta test","C13_IMG_0112.JPG","C13_IMG_0113.JPG","C13_IMG_0114.JPG","13",NA,"38"
"459",294959970,"kochbs",53235388,"11.8",1,"T0",NA,1,"CHIPMUNK","1","NOSNOWBAREGROUND",NA,NA,NA,16695,"73999176",5,"beta test","C31_IMG_0142.JPG","C31_IMG_0143.JPG","C31_IMG_0144.JPG","31",NA,"147"
"460",294960279,"kochbs",53235297,"11.8",1,"T0",NA,1,"COYOTE","1","NOSNOWBAREGROUND",NA,NA,NA,16695,"73998442",5,"beta test","C23_EK000106.JPG","C23_EK000107.JPG","C23_EK000108.JPG","23",NA,"81"
"461",294960425,"kochbs",53235269,"11.8",1,"T0",NA,1,"DEERWHITETAILED","1","NOSNOWBAREGROUND","NO",NA,NA,16695,"73998758",6,"beta test","C23_EK000064.JPG","C23_EK000065.JPG","C23_EK000066.JPG","23",NA,"67"
"462",294960559,"kochbs",53235319,"11.8",1,"T0",NA,1,"FOXGRAY","1","NOSNOWBAREGROUND",NA,NA,NA,16695,"73998796",5,"beta test","C25_EK000010.JPG","C25_EK000011.JPG","C25_EK000012.JPG","25",NA,"95"
"463",294960656,"kochbs",53235378,"11.8",1,"T0",NA,1,"DEERWHITETAILED","1","NOSNOWBAREGROUND","NO",NA,NA,16695,"73998503",6,"beta test","C31_IMG_0112.JPG","C31_IMG_0113.JPG","C31_IMG_0114.JPG","31",NA,"137"
"464",294960770,"kochbs",53235347,"11.8",1,"T0",NA,1,"CHIPMUNK","1","NOSNOWBAREGROUND",NA,NA,NA,16695,"73999417",5,"beta test","C31_IMG_0022.JPG","C31_IMG_0023.JPG","C31_IMG_0024.JPG","31",NA,"107"
"465",294961032,"kochbs",53235339,"11.8",1,"T0",NA,1,"OTHERSMALLMAMMAL","1","NOSNOWBAREGROUND",NA,NA,NA,16695,"73999574",7,"beta test","C31_IMG_0016.JPG","C31_IMG_0017.JPG","C31_IMG_0018.JPG","31",NA,"105"
"466",294961130,"kochbs",53235164,"11.8",1,"T0",NA,1,"DEERWHITETAILED","1","NOSNOWBAREGROUND","NO",NA,NA,16695,"73998313",5,"beta test","C13_IMG_0058.JPG","C13_IMG_0059.JPG","C13_IMG_0060.JPG","13",NA,"20"
"467",294961373,"kochbs",53235303,"11.8",1,"T0",NA,1,"SQUIRRELGRAY","1","NOSNOWBAREGROUND",NA,NA,NA,16695,"73998213",5,"beta test","C23_EK000115.JPG","C23_EK000116.JPG","C23_EK000117.JPG","23",NA,"84"
"468",294961617,"kochbs",53235357,"11.8",1,"T0",NA,1,"OTHERSMALLMAMMAL","1","NOSNOWBAREGROUND",NA,NA,NA,16695,"73999560",5,"beta test","C31_IMG_0049.JPG","C31_IMG_0050.JPG","C31_IMG_0051.JPG","31",NA,"116"
"469",294961724,"kochbs",53235179,"11.8",1,"T0",NA,1,"DEERWHITETAILED","1","NOSNOWBAREGROUND","NO",NA,NA,16695,"73998762",7,"beta test","C13_IMG_0070.JPG","C13_IMG_0071.JPG","C13_IMG_0072.JPG","13",NA,"24"
"470",294961851,"kochbs",53235199,"11.8",1,"T0",NA,1,"DEERWHITETAILED","1","NOSNOWBAREGROUND","NO",NA,NA,16695,"73998164",6,"beta test","C13_IMG_0094.JPG","C13_IMG_0095.JPG","C13_IMG_0096.JPG","13",NA,"32"
"471",294962239,"kochbs",53235248,"11.8",1,"T0",NA,1,"OTHERSMALLMAMMAL","1","NOSNOWBAREGROUND",NA,NA,NA,16695,"73998458",6,"beta test","C23_EK000028.JPG","C23_EK000029.JPG","C23_EK000030.JPG","23",NA,"55"
"472",294962240,"Marina04",53235376,"11.8",1,"T0",NA,1,"CHIPMUNK","1","NOSNOWBAREGROUND",NA,NA,NA,16695,"73999608",5,"beta test","C31_IMG_0106.JPG","C31_IMG_0107.JPG","C31_IMG_0108.JPG","31",NA,"135"
"473",294962370,"kochbs",53235356,"11.8",1,"T0",NA,1,"OTHERSMALLMAMMAL","1","NOSNOWBAREGROUND",NA,NA,NA,16695,"73999571",6,"beta test","C31_IMG_0046.JPG","C31_IMG_0047.JPG","C31_IMG_0048.JPG","31",NA,"115"
"474",294962577,"kochbs",53235241,"11.8",1,"T0",NA,1,"DEERWHITETAILED","1","NOSNOWBAREGROUND","NO",NA,NA,16695,"73999192",5,"beta test","C23_EK000013.JPG","C23_EK000014.JPG","C23_EK000015.JPG","23",NA,"50"
"475",294962685,"kochbs",53235263,"11.8",1,"T0",NA,1,"RACCOON","1","NOSNOWBAREGROUND",NA,NA,NA,16695,"73999256",5,"beta test","C23_EK000052.JPG","C23_EK000053.JPG","C23_EK000054.JPG","23",NA,"63"
"476",294962868,"kochbs",53235370,"11.8",1,"T0",NA,1,"OTHERSMALLMAMMAL","1","NOSNOWBAREGROUND",NA,NA,NA,16695,"73999026",5,"beta test","C31_IMG_0088.JPG","C31_IMG_0089.JPG","C31_IMG_0090.JPG","31",NA,"129"
"477",294962948,"kochbs",53235153,"11.8",1,"T0",NA,1,"DEERWHITETAILED","1","NOSNOWBAREGROUND","NO",NA,NA,16695,"73998523",5,"beta test","C13_IMG_0034.JPG","C13_IMG_0035.JPG","C13_IMG_0036.JPG","13",NA,"12"
