"","subject_ids","classification_id","user_name","workflow_version","task_index","task","task_label","array.index","choice","answers.HOWMANY","answers.ESTIMATEOFSNOWDEPTHSEETUTORIALORFIELDGUIDE","answers.ANTLERSPRESENT","answers.HOWMANYPEOPLE","answers.WHATTYPEOFHUMAN","workflow_id","id","class.count","round","Imj1","Imj2","Img3","CamNum","SD_card_num","Event"
"1",52256696,293839821,"Suem28","11.8",1,"T0",NA,1,"SQUIRRELGRAY","1","NOSNOWBAREGROUND",NA,NA,NA,16695,"73024141",5,"R1","C28_SD18_R1_0343.JPG","C28_SD18_R1_0344.JPG","C28_SD18_R1_0345.JPG","28","18","247"
"2",52259301,293839995,"Suem28","11.8",1,"T0",NA,1,"DEERWHITETAILED","1","NOSNOWBAREGROUND",NA,NA,NA,16695,"73286645",5,"R1","C45_SD5_R1_0025.JPG","C45_SD5_R1_0026.JPG","C45_SD5_R1_0027.JPG","45","5","1551"
"3",52259303,293840382,"Suem28","11.8",1,"T0",NA,1,"CHIPMUNK","1","NOSNOWBAREGROUND",NA,NA,NA,16695,"73015419",5,"R1","C45_SD5_R1_0031.JPG","C45_SD5_R1_0032.JPG","C45_SD5_R1_0033.JPG","45","5","1553"
"4",52256564,293840905,"Suem28","11.8",1,"T0",NA,1,"SQUIRRELGRAY","1","NOSNOWBAREGROUND",NA,NA,NA,16695,"73366604",5,"R1","C28_SD18_R1_0151.JPG","C28_SD18_R1_0152.JPG","C28_SD18_R1_0153.JPG","28","18","183"
"5",52257025,293841018,"Suem28","11.8",1,"T0",NA,1,"OTHERBIRD",NA,NA,NA,NA,NA,16695,"72975446",5,"R1","C28_SD18_R1_0829.JPG","C28_SD18_R1_0830.JPG","C28_SD18_R1_0831.JPG","28","18","409"
"6",52256895,293921028,"Suem28","11.8",1,"T0",NA,1,"SQUIRRELGRAY","1","NOSNOWBAREGROUND",NA,NA,NA,16695,"73488143",5,"R1","C28_SD18_R1_0646.JPG","C28_SD18_R1_0647.JPG","C28_SD18_R1_0648.JPG","28","18","348"
"7",52256937,293921207,"Suem28","11.8",1,"T0",NA,1,"SQUIRRELGRAY","1","NOSNOWBAREGROUND",NA,NA,NA,16695,"72909024",5,"R1","C28_SD18_R1_0709.JPG","C28_SD18_R1_0710.JPG","C28_SD18_R1_0711.JPG","28","18","369"
"8",52259825,293921492,"Suem28","11.8",1,"T0",NA,1,"DEERWHITETAILED","1","NOSNOWBAREGROUND","NO",NA,NA,16695,"73030851",5,"R1","C52_SD69_R1_0127.JPG","C52_SD69_R1_0128.JPG","C52_SD69_R1_0129.JPG","52","69","1831"
"9",52259329,293921805,"Suem28","11.8",1,"T0",NA,1,"DEERWHITETAILED","1","NOSNOWBAREGROUND",NA,NA,NA,16695,"72892307",5,"R1","C45_SD5_R1_0064.JPG","C45_SD5_R1_0065.JPG","C45_SD5_R1_0066.JPG","45","5","1564"
"10",52256591,293921945,"Suem28","11.8",1,"T0",NA,1,"SQUIRRELGRAY","1","NOSNOWBAREGROUND",NA,NA,NA,16695,"73347776",5,"R1","C28_SD18_R1_0190.JPG","C28_SD18_R1_0191.JPG","C28_SD18_R1_0192.JPG","28","18","196"
"11",52256383,293922106,"Suem28","11.8",1,"T0",NA,1,"RACCOON","1","NOSNOWBAREGROUND",NA,NA,NA,16695,"73347274",5,"R1","C27_SD25_R1_0022.JPG","C27_SD25_R1_0023.JPG","C27_SD25_R1_0024.JPG","27","25","93"
"12",52256561,293923084,"Suem28","11.8",1,"T0",NA,1,"SQUIRRELGRAY","1","NOSNOWBAREGROUND",NA,NA,NA,16695,"72974161",5,"R1","C28_SD18_R1_0145.JPG","C28_SD18_R1_0146.JPG","C28_SD18_R1_0147.JPG","28","18","181"
"13",52259781,293923216,"Suem28","11.8",1,"T0",NA,1,"DEERWHITETAILED","1","NOSNOWBAREGROUND",NA,NA,NA,16695,"72690596",5,"R1","C52_SD69_R1_0061.JPG","C52_SD69_R1_0062.JPG","C52_SD69_R1_0063.JPG","52","69","1809"
"14",52259577,293923598,"Suem28","11.8",1,"T0",NA,1,"BLACKBEAR","23","NOSNOWBAREGROUND",NA,NA,NA,16695,"73019784",5,"R1","C48_SD71_R1_0196.JPG","C48_SD71_R1_0197.JPG","C48_SD71_R1_0198.JPG","48","71","1697"
"15",52259778,294054788,"Suem28","11.8",1,"T0",NA,1,"DEERWHITETAILED","1","NOSNOWBAREGROUND",NA,NA,NA,16695,"72994777",5,"R1","C52_SD69_R1_0055.JPG","C52_SD69_R1_0056.JPG","C52_SD69_R1_0057.JPG","52","69","1807"
"16",53235307,294054848,"Suem28","11.8",1,"T0",NA,1,"DEERWHITETAILED","1","NOSNOWBAREGROUND",NA,NA,NA,16695,"73998688",6,"beta test","C23_EK000124.JPG","C23_EK000125.JPG","C23_EK000126.JPG","23",NA,"87"
"17",52256854,294054927,"Suem28","11.8",1,"T0",NA,1,"SQUIRRELGRAY","1","NOSNOWBAREGROUND",NA,NA,NA,16695,"72909585",5,"R1","C28_SD18_R1_0583.JPG","C28_SD18_R1_0584.JPG","C28_SD18_R1_0585.JPG","28","18","327"
"18",52257093,294090095,"Suem28","11.8",1,"T0",NA,1,"RACCOON","1","NOSNOWBAREGROUND",NA,NA,NA,16695,"73065477",5,"R1","C28_SD18_R1_0931.JPG","C28_SD18_R1_0932.JPG","C28_SD18_R1_0933.JPG","28","18","443"
"19",52256312,294090208,"Suem28","11.8",1,"T0",NA,1,"DOMESTICDOG","1","NOSNOWBAREGROUND",NA,NA,NA,16695,"73366533",5,"R1","C23_SD17_R1_IMG_0004.JPG","C23_SD17_R1_IMG_0005.JPG","C23_SD17_R1_IMG_0006.JPG","23","17","62"
"20",52256828,294090272,"Suem28","11.8",1,"T0",NA,1,"SQUIRRELGRAY","1","NOSNOWBAREGROUND",NA,NA,NA,16695,"72972582",6,"R1","C28_SD18_R1_0553.JPG","C28_SD18_R1_0554.JPG","C28_SD18_R1_0555.JPG","28","18","317"
"21",52258303,294090338,"Suem28","11.8",1,"T0",NA,1,"DEERWHITETAILED","1","NOSNOWBAREGROUND",NA,NA,NA,16695,"72973133",5,"R1","C42_SD78_R1_0952.JPG","C42_SD78_R1_0953.JPG","C42_SD78_R1_0954.JPG","42","78","1019"
"22",52259358,294090433,"Suem28","11.8",1,"T0",NA,1,"RACCOON","1","NOSNOWBAREGROUND",NA,NA,NA,16695,"73286391",5,"R1","C47_SD76_R1_0010.JPG","C47_SD76_R1_0011.JPG","C47_SD76_R1_0012.JPG","47","76","1579"
"23",52256701,294090533,"Suem28","11.8",1,"T0",NA,1,"SQUIRRELGRAY","1","NOSNOWBAREGROUND",NA,NA,NA,16695,"73454745",5,"R1","C28_SD18_R1_0355.JPG","C28_SD18_R1_0356.JPG","C28_SD18_R1_0357.JPG","28","18","251"
"24",52257521,294145738,"Suem28","11.8",1,"T0",NA,1,"DEERWHITETAILED","1","NOSNOWBAREGROUND",NA,NA,NA,16695,"72890966",5,"R1","C37_SD6_R1_0346.JPG","C37_SD6_R1_0347.JPG","C37_SD6_R1_0348.JPG","37","6","654"
"25",52259377,294145926,"Suem28","11.8",1,"T0",NA,1,"DEERWHITETAILED","1","NOSNOWBAREGROUND",NA,NA,NA,16695,"73455095",5,"R1","C47_SD76_R1_0043.JPG","C47_SD76_R1_0044.JPG","C47_SD76_R1_0045.JPG","47","76","1590"
"26",52256739,294146303,"Suem28","11.8",1,"T0",NA,1,"OPOSSUM","1","NOSNOWBAREGROUND",NA,NA,NA,16695,"73476254",5,"R1","C28_SD18_R1_0424.JPG","C28_SD18_R1_0425.JPG","C28_SD18_R1_0426.JPG","28","18","274"
"27",52256998,294146629,"Suem28","11.8",1,"T0",NA,1,"OTHERBIRD",NA,NA,NA,NA,NA,16695,"72892381",5,"R1","C28_SD18_R1_0802.JPG","C28_SD18_R1_0803.JPG","C28_SD18_R1_0804.JPG","28","18","400"
"28",52256998,294146629,"Suem28","11.8",1,"T0",NA,2,"SQUIRRELGRAY","1","NOSNOWBAREGROUND",NA,NA,NA,16695,"72892381",5,"R1","C28_SD18_R1_0802.JPG","C28_SD18_R1_0803.JPG","C28_SD18_R1_0804.JPG","28","18","400"
"29",52256548,294417751,"Suem28","11.8",1,"T0",NA,1,"SQUIRRELGRAY","1","NOSNOWBAREGROUND",NA,NA,NA,16695,"73041582",5,"R1","C28_SD18_R1_0121.JPG","C28_SD18_R1_0122.JPG","C28_SD18_R1_0123.JPG","28","18","173"
"30",53235388,294417917,"Suem28","11.8",1,"T0",NA,1,"OTHERBIRD",NA,NA,NA,NA,NA,16695,"73999176",5,"beta test","C31_IMG_0142.JPG","C31_IMG_0143.JPG","C31_IMG_0144.JPG","31",NA,"147"
"31",52256694,294418179,"Suem28","11.8",1,"T0",NA,1,"SQUIRRELGRAY","1","NOSNOWBAREGROUND",NA,NA,NA,16695,"73488644",6,"R1","C28_SD18_R1_0340.JPG","C28_SD18_R1_0341.JPG","C28_SD18_R1_0342.JPG","28","18","246"
"32",52256938,294418263,"Suem28","11.8",1,"T0",NA,1,"SQUIRRELGRAY","1","NOSNOWBAREGROUND",NA,NA,NA,16695,"73346710",5,"R1","C28_SD18_R1_0712.JPG","C28_SD18_R1_0713.JPG","C28_SD18_R1_0714.JPG","28","18","370"
"33",53235390,294418399,"Suem28","11.8",1,"T0",NA,1,"SQUIRRELGRAY","1","NOSNOWBAREGROUND",NA,NA,NA,16695,"73999570",7,"beta test","C31_IMG_0148.JPG","C31_IMG_0149.JPG","C31_IMG_0150.JPG","31",NA,"149"
"34",52257235,294418747,"Suem28","11.8",1,"T0",NA,1,"DOMESTICDOG","1","NOSNOWBAREGROUND",NA,NA,NA,16695,"73487875",5,"R1","C34_SD63_R1_IMG_0004.JPG","C34_SD63_R1_IMG_0005.JPG","C34_SD63_R1_IMG_0006.JPG","34","63","509"
"35",52257235,294418747,"Suem28","11.8",1,"T0",NA,2,"HUMAN",NA,NA,NA,"1","RECREATIONALIST",16695,"73487875",5,"R1","C34_SD63_R1_IMG_0004.JPG","C34_SD63_R1_IMG_0005.JPG","C34_SD63_R1_IMG_0006.JPG","34","63","509"
"36",52257524,294436539,"Suem28","11.8",1,"T0",NA,1,"OTHERSMALLMAMMAL","1","NOSNOWBAREGROUND",NA,NA,NA,16695,"73334263",5,"R1","C37_SD6_R1_0352.JPG","C37_SD6_R1_0353.JPG","C37_SD6_R1_0354.JPG","37","6","656"
"37",52257153,294436783,"Suem28","11.8",1,"T0",NA,1,"FOXGRAY","1","NOSNOWBAREGROUND",NA,NA,NA,16695,"73488366",5,"R1","C31_SD59_R1_IMG_0022.JPG","C31_SD59_R1_IMG_0023.JPG","C31_SD59_R1_IMG_0024.JPG","31","59","472"
"38",52258304,294436922,"Suem28","11.8",1,"T0",NA,1,"DEERWHITETAILED","1","NOSNOWBAREGROUND","NO",NA,NA,16695,"73347744",5,"R1","C42_SD78_R1_0955.JPG","C42_SD78_R1_0956.JPG","C42_SD78_R1_0957.JPG","42","78","1020"
"39",53235387,294857467,"not-logged-in-711bb896f1fd236cc99d","11.8",1,"T0",NA,1,"MINK","1","NOSNOWBAREGROUND",NA,NA,NA,16695,"73998567",6,"beta test","C31_IMG_0139.JPG","C31_IMG_0140.JPG","C31_IMG_0141.JPG","31",NA,"146"
"40",53235319,294857623,"chalverson22","11.8",1,"T0",NA,1,"FOXGRAY","1","NOSNOWBAREGROUND",NA,NA,NA,16695,"73998796",5,"beta test","C25_EK000010.JPG","C25_EK000011.JPG","C25_EK000012.JPG","25",NA,"95"
"41",53235338,294857717,"chalverson22","11.8",1,"T0",NA,1,"BLUEJAY",NA,NA,NA,NA,NA,16695,"73998929",5,"beta test","C31_IMG_0013.JPG","C31_IMG_0014.JPG","C31_IMG_0015.JPG","31",NA,"104"
"42",53235193,294857724,"not-logged-in-a962e514db4055ac3cc1","11.8",1,"T0",NA,1,"DEERWHITETAILED","1","NOSNOWBAREGROUND",NA,NA,NA,16695,"73998189",5,"beta test","C13_IMG_0085.JPG","C13_IMG_0086.JPG","C13_IMG_0087.JPG","13",NA,"29"
"43",53235152,294857744,"WendiLK","11.8",1,"T0",NA,1,"DEERWHITETAILED","1","NOSNOWBAREGROUND","NO",NA,NA,16695,"73999614",5,"beta test","C13_IMG_0031.JPG","C13_IMG_0032.JPG","C13_IMG_0033.JPG","13",NA,"11"
"44",53235415,294857849,"chalverson22","11.8",1,"T0",NA,1,"DEERWHITETAILED","23","DUSTING10CM","NO",NA,NA,16695,"73998261",5,"beta test","C31_IMG_0193.JPG","C31_IMG_0194.JPG","C31_IMG_0195.JPG","31",NA,"164"
"45",53235411,294857870,"not-logged-in-a962e514db4055ac3cc1","11.8",1,"T0",NA,1,"DEERWHITETAILED","1","NOSNOWBAREGROUND","NO",NA,NA,16695,"73998139",5,"beta test","C31_IMG_0187.JPG","C31_IMG_0188.JPG","C31_IMG_0189.JPG","31",NA,"162"
"46",53235309,294858064,"chalverson22","11.8",1,"T0",NA,1,"DEERWHITETAILED","1","NOSNOWBAREGROUND","NO",NA,NA,16695,"73998469",5,"beta test","C23_EK000127.JPG","C23_EK000128.JPG","C23_EK000129.JPG","23",NA,"88"
"47",53235213,294858262,"chalverson22","11.8",1,"T0",NA,1,"DEERWHITETAILED","1","NOSNOWBAREGROUND","NO",NA,NA,16695,"73998286",5,"beta test","C13_IMG_0106.JPG","C13_IMG_0107.JPG","C13_IMG_0108.JPG","13",NA,"36"
"48",53235361,294858501,"chalverson22","11.8",1,"T0",NA,1,"SKUNKSTRIPED","1","NOSNOWBAREGROUND",NA,NA,NA,16695,"73999492",5,"beta test","C31_IMG_0061.JPG","C31_IMG_0062.JPG","C31_IMG_0063.JPG","31",NA,"120"
"49",53235241,294858601,"not-logged-in-78e4f95ca68ce8aa4769","11.8",1,"T0",NA,1,"FOXRED","1","NOSNOWBAREGROUND",NA,NA,NA,16695,"73999192",5,"beta test","C23_EK000013.JPG","C23_EK000014.JPG","C23_EK000015.JPG","23",NA,"50"
"50",53235319,294858605,"not-logged-in-814fc7b041b8d61802d5","11.8",1,"T0",NA,1,"FOXRED","1","NOSNOWBAREGROUND",NA,NA,NA,16695,"73998796",5,"beta test","C25_EK000010.JPG","C25_EK000011.JPG","C25_EK000012.JPG","25",NA,"95"
"51",53235290,294858679,"chalverson22","11.8",1,"T0",NA,1,"SQUIRRELGRAY","1","NOSNOWBAREGROUND",NA,NA,NA,16695,"73998095",5,"beta test","C23_EK000094.JPG","C23_EK000095.JPG","C23_EK000096.JPG","23",NA,"77"
"52",53235155,294858860,"chalverson22","11.8",1,"T0",NA,1,"DEERWHITETAILED","1","NOSNOWBAREGROUND","NO",NA,NA,16695,"73999170",5,"beta test","C13_IMG_0040.JPG","C13_IMG_0041.JPG","C13_IMG_0042.JPG","13",NA,"14"
"53",53235396,294859089,"chalverson22","11.8",1,"T0",NA,1,"OTHERSMALLMAMMAL","1","NOSNOWBAREGROUND",NA,NA,NA,16695,"73999509",5,"beta test","C31_IMG_0166.JPG","C31_IMG_0167.JPG","C31_IMG_0168.JPG","31",NA,"155"
"54",53235389,294859363,"Mulaffarabdullah","11.8",1,"T0",NA,1,"BLUEJAY",NA,NA,NA,NA,NA,16695,"73998646",5,"beta test","C31_IMG_0145.JPG","C31_IMG_0146.JPG","C31_IMG_0147.JPG","31",NA,"148"
"55",53235317,294859460,"candrac","11.8",1,"T0",NA,1,"DEERWHITETAILED","1","NOSNOWBAREGROUND","NO",NA,NA,16695,"73998726",5,"beta test","C25_EK000004.JPG","C25_EK000005.JPG","C25_EK000006.JPG","25",NA,"93"
"56",53235387,294859769,"not-logged-in-a962e514db4055ac3cc1","11.8",1,"T0",NA,1,"WEASEL","1","NOSNOWBAREGROUND",NA,NA,NA,16695,"73998567",6,"beta test","C31_IMG_0139.JPG","C31_IMG_0140.JPG","C31_IMG_0141.JPG","31",NA,"146"
"57",53235323,294859780,"Robinson2491","11.8",1,"T0",NA,1,"FOXGRAY","1","NOSNOWBAREGROUND",NA,NA,NA,16695,"73999148",5,"beta test","C25_EK000016.JPG","C25_EK000017.JPG","C25_EK000018.JPG","25",NA,"97"
"58",53235388,294859885,"not-logged-in-e69d5ca6ce42139f2244","11.8",1,"T0",NA,1,"WEASEL","1","1020CM",NA,NA,NA,16695,"73999176",5,"beta test","C31_IMG_0142.JPG","C31_IMG_0143.JPG","C31_IMG_0144.JPG","31",NA,"147"
"59",53235179,294859961,"not-logged-in-a962e514db4055ac3cc1","11.8",1,"T0",NA,1,"DEERWHITETAILED","1","NOSNOWBAREGROUND",NA,NA,NA,16695,"73998762",7,"beta test","C13_IMG_0070.JPG","C13_IMG_0071.JPG","C13_IMG_0072.JPG","13",NA,"24"
"60",53235316,294860150,"not-logged-in-a962e514db4055ac3cc1","11.8",1,"T0",NA,1,"DEERWHITETAILED","1","NOSNOWBAREGROUND","NO",NA,NA,16695,"73998385",5,"beta test","C25_EK000002.JPG","C25_EK000001.JPG","C25_EK000003.JPG","25",NA,"92"
"61",53235307,294860317,"not-logged-in-a962e514db4055ac3cc1","11.8",1,"T0",NA,1,"DEERWHITETAILED","1","NOSNOWBAREGROUND","NO",NA,NA,16695,"73998688",6,"beta test","C23_EK000124.JPG","C23_EK000125.JPG","C23_EK000126.JPG","23",NA,"87"
"62",53235350,294860393,"Mulaffarabdullah","11.8",1,"T0",NA,1,"RACCOON","1","NOSNOWBAREGROUND",NA,NA,NA,16695,"73999583",5,"beta test","C31_IMG_0028.JPG","C31_IMG_0029.JPG","C31_IMG_0030.JPG","31",NA,"109"
"63",53235213,294860399,"candrac","11.8",1,"T0",NA,1,"DEERWHITETAILED","1","NOSNOWBAREGROUND","NO",NA,NA,16695,"73998286",5,"beta test","C13_IMG_0106.JPG","C13_IMG_0107.JPG","C13_IMG_0108.JPG","13",NA,"36"
"64",53235276,294860559,"candrac","11.8",1,"T0",NA,1,"DEERWHITETAILED","1","NOSNOWBAREGROUND","NO",NA,NA,16695,"73999383",5,"beta test","C23_EK000076.JPG","C23_EK000077.JPG","C23_EK000078.JPG","23",NA,"71"
"65",53235149,294860733,"Batfan","11.8",1,"T0",NA,1,"DEERWHITETAILED","1","NOSNOWBAREGROUND","NO",NA,NA,16695,"73998151",5,"beta test","C13_IMG_0022.JPG","C13_IMG_0023.JPG","C13_IMG_0024.JPG","13",NA,"8"
"66",53235361,294860815,"candrac","11.8",1,"T0",NA,1,"PORCUPINE","1","NOSNOWBAREGROUND",NA,NA,NA,16695,"73999492",5,"beta test","C31_IMG_0061.JPG","C31_IMG_0062.JPG","C31_IMG_0063.JPG","31",NA,"120"
"67",53235221,294860871,"not-logged-in-fa2e2f282ff8961b1c73","11.8",1,"T0",NA,1,"DEERWHITETAILED","23","NOSNOWBAREGROUND","NO",NA,NA,16695,"73998220",5,"beta test","C13_IMG_0115.JPG","C13_IMG_0116.JPG","C13_IMG_0117.JPG","13",NA,"39"
"68",53235219,294860996,"Batfan","11.8",1,"T0",NA,1,"DEERWHITETAILED","1","NOSNOWBAREGROUND","NO",NA,NA,16695,"73998278",6,"beta test","C13_IMG_0112.JPG","C13_IMG_0113.JPG","C13_IMG_0114.JPG","13",NA,"38"
"69",53235360,294861065,"candrac","11.8",1,"T0",NA,1,"CHIPMUNK","1","NOSNOWBAREGROUND",NA,NA,NA,16695,"73998122",6,"beta test","C31_IMG_0058.JPG","C31_IMG_0059.JPG","C31_IMG_0060.JPG","31",NA,"119"
"70",53235413,294861235,"not-logged-in-a962e514db4055ac3cc1","11.8",1,"T0",NA,1,"WEASEL","1","NOSNOWBAREGROUND",NA,NA,NA,16695,"73999116",7,"beta test","C31_IMG_0190.JPG","C31_IMG_0191.JPG","C31_IMG_0192.JPG","31",NA,"163"
"71",53235290,294861488,"Mulaffarabdullah","11.8",1,"T0",NA,1,"CHIPMUNK","1","NOSNOWBAREGROUND",NA,NA,NA,16695,"73998095",5,"beta test","C23_EK000094.JPG","C23_EK000095.JPG","C23_EK000096.JPG","23",NA,"77"
"72",53235356,294861492,"Batfan","11.8",1,"T0",NA,1,"OTHERSMALLMAMMAL","1","NOSNOWBAREGROUND",NA,NA,NA,16695,"73999571",6,"beta test","C31_IMG_0046.JPG","C31_IMG_0047.JPG","C31_IMG_0048.JPG","31",NA,"115"
"73",53235251,294861568,"not-logged-in-fa2e2f282ff8961b1c73","11.8",1,"T0",NA,1,"CHIPMUNK","1","NOSNOWBAREGROUND",NA,NA,NA,16695,"73998953",6,"beta test","C23_EK000034.JPG","C23_EK000035.JPG","C23_EK000036.JPG","23",NA,"57"
"74",53235361,294861697,"not-logged-in-a962e514db4055ac3cc1","11.8",1,"T0",NA,1,"PORCUPINE","1","NOSNOWBAREGROUND",NA,NA,NA,16695,"73999492",5,"beta test","C31_IMG_0061.JPG","C31_IMG_0062.JPG","C31_IMG_0063.JPG","31",NA,"120"
"75",53235384,294861782,"not-logged-in-fa2e2f282ff8961b1c73","11.8",1,"T0",NA,1,"CHIPMUNK","1","NOSNOWBAREGROUND",NA,NA,NA,16695,"73998312",5,"beta test","C31_IMG_0130.JPG","C31_IMG_0131.JPG","C31_IMG_0132.JPG","31",NA,"143"
"76",53235151,294861822,"Mulaffarabdullah","11.8",1,"T0",NA,1,"DEERWHITETAILED","1","NOSNOWBAREGROUND",NA,NA,NA,16695,"73998257",5,"beta test","C13_IMG_0028.JPG","C13_IMG_0029.JPG","C13_IMG_0030.JPG","13",NA,"10"
"77",53235222,294861824,"Batfan","11.8",1,"T0",NA,1,"DEERWHITETAILED","23","NOSNOWBAREGROUND","NO",NA,NA,16695,"73999389",6,"beta test","C13_IMG_0118.JPG","C13_IMG_0119.JPG","C13_IMG_0120.JPG","13",NA,"40"
"78",53235318,294861973,"Mulaffarabdullah","11.8",1,"T0",NA,1,"RACCOON","1","NOSNOWBAREGROUND",NA,NA,NA,16695,"73998717",5,"beta test","C25_EK000007.JPG","C25_EK000008.JPG","C25_EK000009.JPG","25",NA,"94"
"79",53235335,294862147,"Batfan","11.8",1,"T0",NA,1,"OPOSSUM","1","NOSNOWBAREGROUND",NA,NA,NA,16695,"73999646",5,"beta test","C31_IMG_0007.JPG","C31_IMG_0008.JPG","C31_IMG_0009.JPG","31",NA,"102"
"80",53235221,294862324,"OrleoMarinaro","11.8",1,"T0",NA,1,"DEERWHITETAILED","1","NOSNOWBAREGROUND","NO",NA,NA,16695,"73998220",5,"beta test","C13_IMG_0115.JPG","C13_IMG_0116.JPG","C13_IMG_0117.JPG","13",NA,"39"
"81",53235161,294862521,"Batfan","11.8",1,"T0",NA,1,"DEERWHITETAILED","23","NOSNOWBAREGROUND","NO",NA,NA,16695,"73998345",6,"beta test","C13_IMG_0052.JPG","C13_IMG_0053.JPG","C13_IMG_0054.JPG","13",NA,"18"
"82",53235417,294862612,"OrleoMarinaro","11.8",1,"T0",NA,1,"DEERWHITETAILED","1","1020CM","NO",NA,NA,16695,"73998430",5,"beta test","C31_IMG_0196.JPG","C31_IMG_0197.JPG","C31_IMG_0198.JPG","31",NA,"165"
"83",53235351,294862757,"Batfan","11.8",1,"T0",NA,1,"DEERWHITETAILED","1","NOSNOWBAREGROUND","NO",NA,NA,16695,"73998152",5,"beta test","C31_IMG_0031.JPG","C31_IMG_0032.JPG","C31_IMG_0033.JPG","31",NA,"110"
"84",53235227,294862770,"Mulaffarabdullah","11.8",1,"T0",NA,1,"WEASEL","1","NOSNOWBAREGROUND",NA,NA,NA,16695,"73999631",5,"beta test","C13_IMG_0124.JPG","C13_IMG_0125.JPG","C13_IMG_0126.JPG","13",NA,"42"
"85",53235395,294863111,"Mulaffarabdullah","11.8",1,"T0",NA,1,"CHIPMUNK","1","NOSNOWBAREGROUND",NA,NA,NA,16695,"73999067",5,"beta test","C31_IMG_0163.JPG","C31_IMG_0164.JPG","C31_IMG_0165.JPG","31",NA,"154"
"86",53235401,294863124,"Batfan","11.8",1,"T0",NA,1,"OTHERBIRD",NA,NA,NA,NA,NA,16695,"73998733",5,"beta test","C31_IMG_0175.JPG","C31_IMG_0176.JPG","C31_IMG_0177.JPG","31",NA,"158"
"87",53235396,294863659,"OcularSquirrel","11.8",1,"T0",NA,1,"CHIPMUNK","1","NOSNOWBAREGROUND",NA,NA,NA,16695,"73999509",5,"beta test","C31_IMG_0166.JPG","C31_IMG_0167.JPG","C31_IMG_0168.JPG","31",NA,"155"
"88",53235389,294863702,"not-logged-in-063fbc1354687207d645","11.8",1,"T0",NA,1,"BLUEJAY",NA,NA,NA,NA,NA,16695,"73998646",5,"beta test","C31_IMG_0145.JPG","C31_IMG_0146.JPG","C31_IMG_0147.JPG","31",NA,"148"
"89",53235334,294863891,"not-logged-in-7e342f4e3a56f0332d31","11.8",1,"T0",NA,1,"DEERWHITETAILED","1","NOSNOWBAREGROUND","NO",NA,NA,16695,"73998093",7,"beta test","C31_IMG_0004.JPG","C31_IMG_0005.JPG","C31_IMG_0006.JPG","31",NA,"101"
"90",53235349,294864118,"not-logged-in-063fbc1354687207d645","11.8",1,"T0",NA,1,"CHIPMUNK","1","NOSNOWBAREGROUND",NA,NA,NA,16695,"73998441",5,"beta test","C31_IMG_0025.JPG","C31_IMG_0026.JPG","C31_IMG_0027.JPG","31",NA,"108"
"91",53235378,294864353,"OcularSquirrel","11.8",1,"T0",NA,1,"DEERWHITETAILED","1","NOSNOWBAREGROUND","NO",NA,NA,16695,"73998503",6,"beta test","C31_IMG_0112.JPG","C31_IMG_0113.JPG","C31_IMG_0114.JPG","31",NA,"137"
"92",53235276,294864819,"Batfan","11.8",1,"T0",NA,1,"DEERWHITETAILED","1","NOSNOWBAREGROUND","NO",NA,NA,16695,"73999383",5,"beta test","C23_EK000076.JPG","C23_EK000077.JPG","C23_EK000078.JPG","23",NA,"71"
"93",53235418,294864948,"not-logged-in-9a904d2264ae57e9d91b","11.8",1,"T0",NA,1,"DEERWHITETAILED","1","DUSTING10CM","NO",NA,NA,16695,"73998880",6,"beta test","C31_IMG_0199.JPG","C31_IMG_0200.JPG","C31_IMG_0201.JPG","31",NA,"166"
"94",53235228,294864964,"Batfan","11.8",1,"T0",NA,1,"DEERWHITETAILED","1","NOSNOWBAREGROUND","NO",NA,NA,16695,"73998820",5,"beta test","C13_IMG_0127.JPG","C13_IMG_0128.JPG","C13_IMG_0129.JPG","13",NA,"43"
"95",53235266,294865132,"Dynamoj","11.8",1,"T0",NA,1,"CHIPMUNK","1","NOSNOWBAREGROUND",NA,NA,NA,16695,"73999661",6,"beta test","C23_EK000058.JPG","C23_EK000059.JPG","C23_EK000060.JPG","23",NA,"65"
"96",53235317,294865458,"Batfan","11.8",1,"T0",NA,1,"DEERWHITETAILED","1","NOSNOWBAREGROUND","NO",NA,NA,16695,"73998726",5,"beta test","C25_EK000004.JPG","C25_EK000005.JPG","C25_EK000006.JPG","25",NA,"93"
"97",53235406,294865894,"Dynamoj","11.8",1,"T0",NA,1,"DEERWHITETAILED","1","NOSNOWBAREGROUND","YES",NA,NA,16695,"73998780",6,"beta test","C31_IMG_0181.JPG","C31_IMG_0182.JPG","C31_IMG_0183.JPG","31",NA,"160"
"98",53235285,294866938,"Batfan","11.8",1,"T0",NA,1,"DEERWHITETAILED","1","NOSNOWBAREGROUND","NO",NA,NA,16695,"73998165",5,"beta test","C23_EK000088.JPG","C23_EK000089.JPG","C23_EK000090.JPG","23",NA,"75"
"99",53235389,294867118,"Matter01","11.8",1,"T0",NA,1,"BLUEJAY",NA,NA,NA,NA,NA,16695,"73998646",5,"beta test","C31_IMG_0145.JPG","C31_IMG_0146.JPG","C31_IMG_0147.JPG","31",NA,"148"
"100",53235239,294867327,"Batfan","11.8",1,"T0",NA,1,"COYOTE","1","NOSNOWBAREGROUND",NA,NA,NA,16695,"73999539",6,"beta test","C23_EK000010.JPG","C23_EK000011.JPG","C23_EK000012.JPG","23",NA,"49"
"101",53235338,294867496,"Matter01","11.8",1,"T0",NA,1,"BLUEJAY",NA,NA,NA,NA,NA,16695,"73998929",5,"beta test","C31_IMG_0013.JPG","C31_IMG_0014.JPG","C31_IMG_0015.JPG","31",NA,"104"
"102",53235352,294867761,"OcularSquirrel","11.8",1,"T0",NA,1,"OPOSSUM","1","NOSNOWBAREGROUND",NA,NA,NA,16695,"73998263",5,"beta test","C31_IMG_0034.JPG","C31_IMG_0035.JPG","C31_IMG_0036.JPG","31",NA,"111"
"103",53235305,294867839,"OcularSquirrel","11.8",1,"T0",NA,1,"BLUEJAY",NA,NA,NA,NA,NA,16695,"73998195",5,"beta test","C23_EK000118.JPG","C23_EK000119.JPG","C23_EK000120.JPG","23",NA,"85"
"104",53235272,294867855,"Batfan","11.8",1,"T0",NA,1,"CHIPMUNK","1","NOSNOWBAREGROUND",NA,NA,NA,16695,"73999221",5,"beta test","C23_EK000070.JPG","C23_EK000071.JPG","C23_EK000072.JPG","23",NA,"69"
"105",53235281,294868040,"Batfan","11.8",1,"T0",NA,1,"DEERWHITETAILED","1","NOSNOWBAREGROUND","NO",NA,NA,16695,"73999447",5,"beta test","C23_EK000085.JPG","C23_EK000086.JPG","C23_EK000087.JPG","23",NA,"74"
"106",53235411,294868155,"Batfan","11.8",1,"T0",NA,1,"DEERWHITETAILED","1","NOSNOWBAREGROUND","NO",NA,NA,16695,"73998139",5,"beta test","C31_IMG_0187.JPG","C31_IMG_0188.JPG","C31_IMG_0189.JPG","31",NA,"162"
"107",53235234,294868533,"Batfan","11.8",1,"T0",NA,1,"OTHERSMALLMAMMAL","1","NOSNOWBAREGROUND",NA,NA,NA,16695,"73998824",5,"beta test","C23_EK000004.JPG","C23_EK000005.JPG","C23_EK000006.JPG","23",NA,"47"
"108",53235332,294868718,"Batfan","11.8",1,"T0",NA,1,"DEERWHITETAILED","1","NOSNOWBAREGROUND","NO",NA,NA,16695,"73999014",5,"beta test","C31_IMG_0001.JPG","C31_IMG_0002.JPG","C31_IMG_0003.JPG","31",NA,"100"
"109",53235372,294868878,"Batfan","11.8",1,"T0",NA,1,"DEERWHITETAILED","1","NOSNOWBAREGROUND","NO",NA,NA,16695,"73999630",5,"beta test","C31_IMG_0094.JPG","C31_IMG_0095.JPG","C31_IMG_0096.JPG","31",NA,"131"
"110",53235401,294869046,"izzyy","11.8",1,"T0",NA,1,"OTHERBIRD",NA,NA,NA,NA,NA,16695,"73998733",5,"beta test","C31_IMG_0175.JPG","C31_IMG_0176.JPG","C31_IMG_0177.JPG","31",NA,"158"
"111",53235263,294869189,"KarenLongo","11.8",1,"T0",NA,1,"RACCOON","1","NOSNOWBAREGROUND",NA,NA,NA,16695,"73999256",5,"beta test","C23_EK000052.JPG","C23_EK000053.JPG","C23_EK000054.JPG","23",NA,"63"
"112",53235261,294869401,"izzyy","11.8",1,"T0",NA,1,"DEERWHITETAILED","1","NOSNOWBAREGROUND","NO",NA,NA,16695,"73999356",5,"beta test","C23_EK000049.JPG","C23_EK000050.JPG","C23_EK000051.JPG","23",NA,"62"
"113",53235151,294869433,"KarenLongo","11.8",1,"T0",NA,1,"DEERWHITETAILED","1","NOSNOWBAREGROUND","NO",NA,NA,16695,"73998257",5,"beta test","C13_IMG_0028.JPG","C13_IMG_0029.JPG","C13_IMG_0030.JPG","13",NA,"10"
"114",53235213,294869703,"KarenLongo","11.8",1,"T0",NA,1,"DEERWHITETAILED","1","NOSNOWBAREGROUND","NO",NA,NA,16695,"73998286",5,"beta test","C13_IMG_0106.JPG","C13_IMG_0107.JPG","C13_IMG_0108.JPG","13",NA,"36"
"115",53235144,294869800,"izzyy","11.8",1,"T0",NA,1,"DEERWHITETAILED","1","NOSNOWBAREGROUND","NO",NA,NA,16695,"73999544",6,"beta test","C13_IMG_0007.JPG","C13_IMG_0008.JPG","C13_IMG_0009.JPG","13",NA,"3"
"116",53235243,294870169,"izzyy","11.8",1,"T0",NA,1,"AMERICANPINEMARTEN","1","NOSNOWBAREGROUND",NA,NA,NA,16695,"73999600",5,"beta test","C23_EK000016.JPG","C23_EK000017.JPG","C23_EK000018.JPG","23",NA,"51"
"117",53235407,294870234,"KarenLongo","11.8",1,"T0",NA,1,"DEERWHITETAILED","1","NOSNOWBAREGROUND","YES",NA,NA,16695,"73998739",7,"beta test","C31_IMG_0184.JPG","C31_IMG_0185.JPG","C31_IMG_0186.JPG","31",NA,"161"
"118",53235377,294870319,"KarenLongo","11.8",1,"T0",NA,1,"CHIPMUNK","1","NOSNOWBAREGROUND",NA,NA,NA,16695,"73999209",6,"beta test","C31_IMG_0109.JPG","C31_IMG_0110.JPG","C31_IMG_0111.JPG","31",NA,"136"
"119",53235312,294870434,"izzyy","11.8",1,"T0",NA,1,"AMERICANPINEMARTEN","1","DUSTING10CM",NA,NA,NA,16695,"73998642",6,"beta test","C23_EK000133.JPG","C23_EK000134.JPG","C23_EK000135.JPG","23",NA,"90"
"120",53235337,294870451,"KarenLongo","11.8",1,"T0",NA,1,"BLUEJAY",NA,NA,NA,NA,NA,16695,"73999563",5,"beta test","C31_IMG_0010.JPG","C31_IMG_0011.JPG","C31_IMG_0012.JPG","31",NA,"103"
"121",53235307,294870600,"Sivlenora","11.8",1,"T0",NA,1,"DEERWHITETAILED","1","DUSTING10CM",NA,NA,NA,16695,"73998688",6,"beta test","C23_EK000124.JPG","C23_EK000125.JPG","C23_EK000126.JPG","23",NA,"87"
"122",53235268,294870661,"KarenLongo","11.8",1,"T0",NA,1,"CHIPMUNK","1","NOSNOWBAREGROUND",NA,NA,NA,16695,"73999302",5,"beta test","C23_EK000061.JPG","C23_EK000062.JPG","C23_EK000063.JPG","23",NA,"66"
"123",53235374,294870761,"KarenLongo","11.8",1,"T0",NA,1,"CHIPMUNK","1","NOSNOWBAREGROUND",NA,NA,NA,16695,"73998714",6,"beta test","C31_IMG_0100.JPG","C31_IMG_0101.JPG","C31_IMG_0102.JPG","31",NA,"133"
"124",53235195,294870811,"izzyy","11.8",1,"T0",NA,1,"DEERWHITETAILED","1","NOSNOWBAREGROUND","NO",NA,NA,16695,"73998741",5,"beta test","C13_IMG_0088.JPG","C13_IMG_0089.JPG","C13_IMG_0090.JPG","13",NA,"30"
"125",53235261,294870979,"KarenLongo","11.8",1,"T0",NA,1,"DEERWHITETAILED","1","NOSNOWBAREGROUND","NO",NA,NA,16695,"73999356",5,"beta test","C23_EK000049.JPG","C23_EK000050.JPG","C23_EK000051.JPG","23",NA,"62"
"126",53235157,294871019,"izzyy","11.8",1,"T0",NA,1,"DEERWHITETAILED","1","NOSNOWBAREGROUND","NO",NA,NA,16695,"73999111",5,"beta test","C13_IMG_0046.JPG","C13_IMG_0047.JPG","C13_IMG_0048.JPG","13",NA,"16"
"127",53235357,294871134,"KarenLongo","11.8",1,"T0",NA,1,"CHIPMUNK","1","NOSNOWBAREGROUND",NA,NA,NA,16695,"73999560",5,"beta test","C31_IMG_0049.JPG","C31_IMG_0050.JPG","C31_IMG_0051.JPG","31",NA,"116"
"128",53235174,294871327,"KarenLongo","11.8",1,"T0",NA,1,"DEERWHITETAILED","1","NOSNOWBAREGROUND",NA,NA,NA,16695,"73998854",6,"beta test","C13_IMG_0067.JPG","C13_IMG_0068.JPG","C13_IMG_0069.JPG","13",NA,"23"
"129",53235256,294871349,"roymarsden","11.8",1,"T0",NA,1,"DEERWHITETAILED","1","NOSNOWBAREGROUND","NO",NA,NA,16695,"73999538",5,"beta test","C23_EK000043.JPG","C23_EK000044.JPG","C23_EK000045.JPG","23",NA,"60"
"130",53235306,294871371,"Sivlenora","11.8",1,"T0",NA,1,"OTHERSMALLMAMMAL","1","DUSTING10CM",NA,NA,NA,16695,"73998581",6,"beta test","C23_EK000121.JPG","C23_EK000122.JPG","C23_EK000123.JPG","23",NA,"86"
"131",53235142,294871381,"izzyy","11.8",1,"T0",NA,1,"HUMAN",NA,NA,NA,"1","RECREATIONALIST",16695,"73999348",5,"beta test","C13_IMG_0001.JPG","C13_IMG_0002.JPG","C13_IMG_0003.JPG","13",NA,"1"
"132",53235234,294871562,"roymarsden","11.8",1,"T0",NA,1,"SQUIRRELGRAY","1","NOSNOWBAREGROUND",NA,NA,NA,16695,"73998824",5,"beta test","C23_EK000004.JPG","C23_EK000005.JPG","C23_EK000006.JPG","23",NA,"47"
"133",53235367,294871631,"KarenLongo","11.8",1,"T0",NA,1,"CHIPMUNK","1","NOSNOWBAREGROUND",NA,NA,NA,16695,"73998307",5,"beta test","C31_IMG_0079.JPG","C31_IMG_0080.JPG","C31_IMG_0081.JPG","31",NA,"126"
"134",53235337,294871660,"izzyy","11.8",1,"T0",NA,1,"BLUEJAY",NA,NA,NA,NA,NA,16695,"73999563",5,"beta test","C31_IMG_0010.JPG","C31_IMG_0011.JPG","C31_IMG_0012.JPG","31",NA,"103"
"135",53235387,294871732,"roymarsden","11.8",1,"T0",NA,1,"AMERICANPINEMARTEN","1","NOSNOWBAREGROUND",NA,NA,NA,16695,"73998567",6,"beta test","C31_IMG_0139.JPG","C31_IMG_0140.JPG","C31_IMG_0141.JPG","31",NA,"146"
"136",53235199,294871791,"izzyy","11.8",1,"T0",NA,1,"DEERWHITETAILED","1","NOSNOWBAREGROUND","NO",NA,NA,16695,"73998164",6,"beta test","C13_IMG_0094.JPG","C13_IMG_0095.JPG","C13_IMG_0096.JPG","13",NA,"32"
"137",53235228,294871793,"KarenLongo","11.8",1,"T0",NA,1,"DEERWHITETAILED","1","NOSNOWBAREGROUND","NO",NA,NA,16695,"73998820",5,"beta test","C13_IMG_0127.JPG","C13_IMG_0128.JPG","C13_IMG_0129.JPG","13",NA,"43"
"138",53235150,294871939,"KarenLongo","11.8",1,"T0",NA,1,"DEERWHITETAILED","1","NOSNOWBAREGROUND","NO",NA,NA,16695,"73999444",5,"beta test","C13_IMG_0025.JPG","C13_IMG_0026.JPG","C13_IMG_0027.JPG","13",NA,"9"
"139",53235219,294871976,"roymarsden","11.8",1,"T0",NA,1,"DEERWHITETAILED","23","NOSNOWBAREGROUND","NO",NA,NA,16695,"73998278",6,"beta test","C13_IMG_0112.JPG","C13_IMG_0113.JPG","C13_IMG_0114.JPG","13",NA,"38"
"140",53235347,294872104,"roymarsden","11.8",1,"T0",NA,1,"CHIPMUNK","1","NOSNOWBAREGROUND",NA,NA,NA,16695,"73999417",5,"beta test","C31_IMG_0022.JPG","C31_IMG_0023.JPG","C31_IMG_0024.JPG","31",NA,"107"
"141",53235191,294872106,"izzyy","11.8",1,"T0",NA,1,"DEERWHITETAILED","1","NOSNOWBAREGROUND","NO",NA,NA,16695,"73998381",5,"beta test","C13_IMG_0082.JPG","C13_IMG_0083.JPG","C13_IMG_0084.JPG","13",NA,"28"
"142",53235198,294872261,"KarenLongo","11.8",1,"T0",NA,1,"DEERWHITETAILED","1","NOSNOWBAREGROUND","NO",NA,NA,16695,"73999487",6,"beta test","C13_IMG_0091.JPG","C13_IMG_0092.JPG","C13_IMG_0093.JPG","13",NA,"31"
"143",53235319,294872507,"KarenLongo","11.8",1,"T0",NA,1,"FOXGRAY","1","NOSNOWBAREGROUND",NA,NA,NA,16695,"73998796",5,"beta test","C25_EK000010.JPG","C25_EK000011.JPG","C25_EK000012.JPG","25",NA,"95"
"144",53235230,294872532,"OcularSquirrel","11.8",1,"T0",NA,1,"DEERWHITETAILED","1","NOSNOWBAREGROUND","NO",NA,NA,16695,"73999566",5,"beta test","C13_IMG_0130.JPG","C13_IMG_0131.JPG","C13_IMG_0132.JPG","13",NA,"44"
"145",53235256,294872600,"KarenLongo","11.8",1,"T0",NA,1,"DEERWHITETAILED","1","NOSNOWBAREGROUND","NO",NA,NA,16695,"73999538",5,"beta test","C23_EK000043.JPG","C23_EK000044.JPG","C23_EK000045.JPG","23",NA,"60"
"146",53235248,294872900,"OcularSquirrel","11.8",1,"T0",NA,1,"CHIPMUNK","1","NOSNOWBAREGROUND",NA,NA,NA,16695,"73998458",6,"beta test","C23_EK000028.JPG","C23_EK000029.JPG","C23_EK000030.JPG","23",NA,"55"
"147",53235303,294873310,"Sivlenora","11.8",1,"T0",NA,1,"OTHERSMALLMAMMAL","1","DUSTING10CM",NA,NA,NA,16695,"73998213",5,"beta test","C23_EK000115.JPG","C23_EK000116.JPG","C23_EK000117.JPG","23",NA,"84"
"148",53235234,294873587,"not-logged-in-48fb4ee16a0d8fb1473d","11.8",1,"T0",NA,1,"OTHERSMALLMAMMAL","1","NOSNOWBAREGROUND",NA,NA,NA,16695,"73998824",5,"beta test","C23_EK000004.JPG","C23_EK000005.JPG","C23_EK000006.JPG","23",NA,"47"
"149",53235211,294873725,"not-logged-in-48fb4ee16a0d8fb1473d","11.8",1,"T0",NA,1,"DEERWHITETAILED","1","NOSNOWBAREGROUND",NA,NA,NA,16695,"73998640",5,"beta test","C13_IMG_0103.JPG","C13_IMG_0104.JPG","C13_IMG_0105.JPG","13",NA,"35"
"150",53235397,294873859,"not-logged-in-48fb4ee16a0d8fb1473d","11.8",1,"T0",NA,1,"SQUIRRELGRAY","1","NOSNOWBAREGROUND",NA,NA,NA,16695,"73998370",5,"beta test","C31_IMG_0169.JPG","C31_IMG_0170.JPG","C31_IMG_0171.JPG","31",NA,"156"
"151",53235164,294874289,"Sivlenora","11.8",1,"T0",NA,1,"DEERWHITETAILED","1","NOSNOWBAREGROUND","NO",NA,NA,16695,"73998313",5,"beta test","C13_IMG_0058.JPG","C13_IMG_0059.JPG","C13_IMG_0060.JPG","13",NA,"20"
"152",53235276,294874442,"Sivlenora","11.8",1,"T0",NA,1,"DEERWHITETAILED","1","DUSTING10CM","NO",NA,NA,16695,"73999383",5,"beta test","C23_EK000076.JPG","C23_EK000077.JPG","C23_EK000078.JPG","23",NA,"71"
"153",53235152,294874618,"not-logged-in-c72c5d217410d8e37adc","11.8",1,"T0",NA,1,"DEERWHITETAILED","1","NOSNOWBAREGROUND","NO",NA,NA,16695,"73999614",5,"beta test","C13_IMG_0031.JPG","C13_IMG_0032.JPG","C13_IMG_0033.JPG","13",NA,"11"
"154",53235406,294874657,"not-logged-in-063fbc1354687207d645","11.8",1,"T0",NA,1,"DEERWHITETAILED","1","NOSNOWBAREGROUND",NA,NA,NA,16695,"73998780",6,"beta test","C31_IMG_0181.JPG","C31_IMG_0182.JPG","C31_IMG_0183.JPG","31",NA,"160"
"155",53235193,294874730,"not-logged-in-063fbc1354687207d645","11.8",1,"T0",NA,1,"DEERWHITETAILED","1","NOSNOWBAREGROUND","NO",NA,NA,16695,"73998189",5,"beta test","C13_IMG_0085.JPG","C13_IMG_0086.JPG","C13_IMG_0087.JPG","13",NA,"29"
"156",53235393,294874817,"not-logged-in-549ca041cf4ce804d630","11.8",1,"T0",NA,1,"COYOTE","1","NOSNOWBAREGROUND",NA,NA,NA,16695,"73998958",6,"beta test","C31_IMG_0157.JPG","C31_IMG_0158.JPG","C31_IMG_0159.JPG","31",NA,"152"
"157",53235243,294874859,"jangugliotti","11.8",1,"T0",NA,1,"FISHER","1","NOSNOWBAREGROUND",NA,NA,NA,16695,"73999600",5,"beta test","C23_EK000016.JPG","C23_EK000017.JPG","C23_EK000018.JPG","23",NA,"51"
"158",53235316,294874918,"not-logged-in-549ca041cf4ce804d630","11.8",1,"T0",NA,1,"DEERWHITETAILED","1","NOSNOWBAREGROUND","NO",NA,NA,16695,"73998385",5,"beta test","C25_EK000002.JPG","C25_EK000001.JPG","C25_EK000003.JPG","25",NA,"92"
"159",53235373,294874995,"not-logged-in-063fbc1354687207d645","11.8",1,"T0",NA,1,"COYOTE","1","NOSNOWBAREGROUND",NA,NA,NA,16695,"73998465",6,"beta test","C31_IMG_0097.JPG","C31_IMG_0098.JPG","C31_IMG_0099.JPG","31",NA,"132"
"160",53235320,294875014,"Sivlenora","11.8",1,"T0",NA,1,"GROUSERUFFED",NA,NA,NA,NA,NA,16695,"73999365",5,"beta test","C25_EK000013.JPG","C25_EK000014.JPG","C25_EK000015.JPG","25",NA,"96"
"161",53235335,294875021,"jangugliotti","11.8",1,"T0",NA,1,"OPOSSUM","1","NOSNOWBAREGROUND",NA,NA,NA,16695,"73999646",5,"beta test","C31_IMG_0007.JPG","C31_IMG_0008.JPG","C31_IMG_0009.JPG","31",NA,"102"
"162",53235361,294875023,"not-logged-in-549ca041cf4ce804d630","11.8",1,"T0",NA,1,"PORCUPINE","1","NOSNOWBAREGROUND",NA,NA,NA,16695,"73999492",5,"beta test","C31_IMG_0061.JPG","C31_IMG_0062.JPG","C31_IMG_0063.JPG","31",NA,"120"
"163",53235191,294875056,"Bobbyboo","11.8",1,"T0",NA,1,"DEERWHITETAILED","1","NOSNOWBAREGROUND","NO",NA,NA,16695,"73998381",5,"beta test","C13_IMG_0082.JPG","C13_IMG_0083.JPG","C13_IMG_0084.JPG","13",NA,"28"
"164",53235149,294875105,"not-logged-in-549ca041cf4ce804d630","11.8",1,"T0",NA,1,"DEERWHITETAILED","1","NOSNOWBAREGROUND","NO",NA,NA,16695,"73998151",5,"beta test","C13_IMG_0022.JPG","C13_IMG_0023.JPG","C13_IMG_0024.JPG","13",NA,"8"
"165",53235245,294875114,"not-logged-in-063fbc1354687207d645","11.8",1,"T0",NA,1,"OTHERSMALLMAMMAL","1","NOSNOWBAREGROUND",NA,NA,NA,16695,"73998777",6,"beta test","C23_EK000022.JPG","C23_EK000023.JPG","C23_EK000024.JPG","23",NA,"53"
"166",53235158,294875177,"not-logged-in-549ca041cf4ce804d630","11.8",1,"T0",NA,1,"DEERWHITETAILED","1","NOSNOWBAREGROUND","NO",NA,NA,16695,"73999324",5,"beta test","C13_IMG_0049.JPG","C13_IMG_0050.JPG","C13_IMG_0051.JPG","13",NA,"17"
"167",53235365,294875201,"not-logged-in-063fbc1354687207d645","11.8",1,"T0",NA,1,"CHIPMUNK","1","NOSNOWBAREGROUND",NA,NA,NA,16695,"73999430",5,"beta test","C31_IMG_0073.JPG","C31_IMG_0074.JPG","C31_IMG_0075.JPG","31",NA,"124"
"168",53235221,294875268,"not-logged-in-549ca041cf4ce804d630","11.8",1,"T0",NA,1,"DEERWHITETAILED","1","NOSNOWBAREGROUND","NO",NA,NA,16695,"73998220",5,"beta test","C13_IMG_0115.JPG","C13_IMG_0116.JPG","C13_IMG_0117.JPG","13",NA,"39"
"169",53235179,294875297,"not-logged-in-063fbc1354687207d645","11.8",1,"T0",NA,1,"DEERWHITETAILED","1","NOSNOWBAREGROUND","NO",NA,NA,16695,"73998762",7,"beta test","C13_IMG_0070.JPG","C13_IMG_0071.JPG","C13_IMG_0072.JPG","13",NA,"24"
"170",53235158,294875366,"not-logged-in-063fbc1354687207d645","11.8",1,"T0",NA,1,"DEERWHITETAILED","1","NOSNOWBAREGROUND","NO",NA,NA,16695,"73999324",5,"beta test","C13_IMG_0049.JPG","C13_IMG_0050.JPG","C13_IMG_0051.JPG","13",NA,"17"
"171",53235347,294875416,"Sivlenora","11.8",1,"T0",NA,1,"CHIPMUNK","1","NOSNOWBAREGROUND",NA,NA,NA,16695,"73999417",5,"beta test","C31_IMG_0022.JPG","C31_IMG_0023.JPG","C31_IMG_0024.JPG","31",NA,"107"
"172",53235406,294875536,"not-logged-in-549ca041cf4ce804d630","11.8",1,"T0",NA,1,"DEERWHITETAILED","1","NOSNOWBAREGROUND","NO",NA,NA,16695,"73998780",6,"beta test","C31_IMG_0181.JPG","C31_IMG_0182.JPG","C31_IMG_0183.JPG","31",NA,"160"
"173",53235233,294875556,"Sivlenora","11.8",1,"T0",NA,1,"HUMAN",NA,NA,NA,"1","CAMERATRAPPER",16695,"73999527",5,"beta test","C23_EK000001.JPG","C23_EK000002.JPG","C23_EK000003.JPG","23",NA,"46"
"174",53235266,294875681,"Bobbyboo","11.8",1,"T0",NA,1,"CHIPMUNK","1","NOSNOWBAREGROUND",NA,NA,NA,16695,"73999661",6,"beta test","C23_EK000058.JPG","C23_EK000059.JPG","C23_EK000060.JPG","23",NA,"65"
"175",53235248,294875754,"not-logged-in-549ca041cf4ce804d630","11.8",1,"T0",NA,1,"WEASEL","1","NOSNOWBAREGROUND",NA,NA,NA,16695,"73998458",6,"beta test","C23_EK000028.JPG","C23_EK000029.JPG","C23_EK000030.JPG","23",NA,"55"
"176",53235400,294875841,"not-logged-in-549ca041cf4ce804d630","11.8",1,"T0",NA,1,"SQUIRRELGRAY","1","NOSNOWBAREGROUND",NA,NA,NA,16695,"73999334",7,"beta test","C31_IMG_0172.JPG","C31_IMG_0173.JPG","C31_IMG_0174.JPG","31",NA,"157"
"177",53235222,294875929,"jangugliotti","11.8",1,"T0",NA,1,"DEERWHITETAILED","23","NOSNOWBAREGROUND",NA,NA,NA,16695,"73999389",6,"beta test","C13_IMG_0118.JPG","C13_IMG_0119.JPG","C13_IMG_0120.JPG","13",NA,"40"
"178",53235352,294876113,"not-logged-in-549ca041cf4ce804d630","11.8",1,"T0",NA,1,"WEASEL","1","NOSNOWBAREGROUND",NA,NA,NA,16695,"73998263",5,"beta test","C31_IMG_0034.JPG","C31_IMG_0035.JPG","C31_IMG_0036.JPG","31",NA,"111"
"179",53235334,294876196,"not-logged-in-549ca041cf4ce804d630","11.8",1,"T0",NA,1,"DEERWHITETAILED","1","NOSNOWBAREGROUND","NO",NA,NA,16695,"73998093",7,"beta test","C31_IMG_0004.JPG","C31_IMG_0005.JPG","C31_IMG_0006.JPG","31",NA,"101"
"180",53235144,294876267,"not-logged-in-549ca041cf4ce804d630","11.8",1,"T0",NA,1,"DEERWHITETAILED","1","NOSNOWBAREGROUND","NO",NA,NA,16695,"73999544",6,"beta test","C13_IMG_0007.JPG","C13_IMG_0008.JPG","C13_IMG_0009.JPG","13",NA,"3"
"181",53235272,294876335,"not-logged-in-549ca041cf4ce804d630","11.8",1,"T0",NA,1,"CHIPMUNK","1","NOSNOWBAREGROUND",NA,NA,NA,16695,"73999221",5,"beta test","C23_EK000070.JPG","C23_EK000071.JPG","C23_EK000072.JPG","23",NA,"69"
"182",53235279,294876339,"jangugliotti","11.8",1,"T0",NA,1,"GROUSERUFFED",NA,NA,NA,NA,NA,16695,"73998973",6,"beta test","C23_EK000082.JPG","C23_EK000083.JPG","C23_EK000084.JPG","23",NA,"73"
"183",53235273,294876343,"Sivlenora","11.8",1,"T0",NA,1,"CHIPMUNK","1","NOSNOWBAREGROUND",NA,NA,NA,16695,"73999391",5,"beta test","C23_EK000073.JPG","C23_EK000074.JPG","C23_EK000075.JPG","23",NA,"70"
"184",53235219,294876381,"not-logged-in-549ca041cf4ce804d630","11.8",1,"T0",NA,1,"DEERWHITETAILED","1","NOSNOWBAREGROUND","NO",NA,NA,16695,"73998278",6,"beta test","C13_IMG_0112.JPG","C13_IMG_0113.JPG","C13_IMG_0114.JPG","13",NA,"38"
"185",53235245,294876549,"jangugliotti","11.8",1,"T0",NA,1,"OTHERSMALLMAMMAL","1","DUSTING10CM",NA,NA,NA,16695,"73998777",6,"beta test","C23_EK000022.JPG","C23_EK000023.JPG","C23_EK000024.JPG","23",NA,"53"
"186",53235411,294876574,"Sivlenora","11.8",1,"T0",NA,1,"DEERWHITETAILED","1","DUSTING10CM","YES",NA,NA,16695,"73998139",5,"beta test","C31_IMG_0187.JPG","C31_IMG_0188.JPG","C31_IMG_0189.JPG","31",NA,"162"
"187",53235406,294876682,"jangugliotti","11.8",1,"T0",NA,1,"DEERWHITETAILED","1","NOSNOWBAREGROUND","NO",NA,NA,16695,"73998780",6,"beta test","C31_IMG_0181.JPG","C31_IMG_0182.JPG","C31_IMG_0183.JPG","31",NA,"160"
"188",53235205,294876933,"Sivlenora","11.8",1,"T0",NA,1,"OTHERSMALLMAMMAL","1","NOSNOWBAREGROUND",NA,NA,NA,16695,"73999166",5,"beta test","C13_IMG_0097.JPG","C13_IMG_0098.JPG","C13_IMG_0099.JPG","13",NA,"33"
"189",53235389,294878621,"Bobbyboo","11.8",1,"T0",NA,1,"OTHERBIRD",NA,NA,NA,NA,NA,16695,"73998646",5,"beta test","C31_IMG_0145.JPG","C31_IMG_0146.JPG","C31_IMG_0147.JPG","31",NA,"148"
"190",53235353,294879714,"not-logged-in-0fbf096d2bed784fd686","11.8",1,"T0",NA,1,"OTHERSMALLMAMMAL","1","NOSNOWBAREGROUND",NA,NA,NA,16695,"73998355",6,"beta test","C31_IMG_0037.JPG","C31_IMG_0038.JPG","C31_IMG_0039.JPG","31",NA,"112"
"191",53235244,294879966,"not-logged-in-0fbf096d2bed784fd686","11.8",1,"T0",NA,1,"SQUIRRELGRAY","1","NOSNOWBAREGROUND",NA,NA,NA,16695,"73998289",5,"beta test","C23_EK000019.JPG","C23_EK000020.JPG","C23_EK000021.JPG","23",NA,"52"
"192",53235360,294880310,"icemuon","11.8",1,"T0",NA,1,"CHIPMUNK","1","NOSNOWBAREGROUND",NA,NA,NA,16695,"73998122",6,"beta test","C31_IMG_0058.JPG","C31_IMG_0059.JPG","C31_IMG_0060.JPG","31",NA,"119"
"193",53235193,294880462,"icemuon","11.8",1,"T0",NA,1,"DEERWHITETAILED","1","NOSNOWBAREGROUND",NA,NA,NA,16695,"73998189",5,"beta test","C13_IMG_0085.JPG","C13_IMG_0086.JPG","C13_IMG_0087.JPG","13",NA,"29"
"194",53235418,294880794,"moonybears","11.8",1,"T0",NA,1,"DEERWHITETAILED","1","DUSTING10CM",NA,NA,NA,16695,"73998880",6,"beta test","C31_IMG_0199.JPG","C31_IMG_0200.JPG","C31_IMG_0201.JPG","31",NA,"166"
"195",53235323,294880849,"icemuon","11.8",1,"T0",NA,1,"FOXRED","1","NOSNOWBAREGROUND",NA,NA,NA,16695,"73999148",5,"beta test","C25_EK000016.JPG","C25_EK000017.JPG","C25_EK000018.JPG","25",NA,"97"
"196",53235332,294880935,"moonybears","11.8",1,"T0",NA,1,"DEERWHITETAILED","1","NOSNOWBAREGROUND","NO",NA,NA,16695,"73999014",5,"beta test","C31_IMG_0001.JPG","C31_IMG_0002.JPG","C31_IMG_0003.JPG","31",NA,"100"
"197",53235315,294881124,"moonybears","11.8",1,"T0",NA,1,"DEERWHITETAILED","1","DUSTING10CM","NO",NA,NA,16695,"73999154",6,"beta test","C23_EK000136.JPG","C23_EK000137.JPG","C23_EK000138.JPG","23",NA,"91"
"198",53235358,294882087,"moonybears","11.8",1,"T0",NA,1,"OTHERBIRD",NA,NA,NA,NA,NA,16695,"73998234",5,"beta test","C31_IMG_0052.JPG","C31_IMG_0053.JPG","C31_IMG_0054.JPG","31",NA,"117"
"199",53235371,294882238,"moonybears","11.8",1,"T0",NA,1,"OTHERSMALLMAMMAL","1","NOSNOWBAREGROUND",NA,NA,NA,16695,"73999101",7,"beta test","C31_IMG_0091.JPG","C31_IMG_0092.JPG","C31_IMG_0093.JPG","31",NA,"130"
"200",53235155,294882294,"OcularSquirrel","11.8",1,"T0",NA,1,"DEERWHITETAILED","1","NOSNOWBAREGROUND","NO",NA,NA,16695,"73999170",5,"beta test","C13_IMG_0040.JPG","C13_IMG_0041.JPG","C13_IMG_0042.JPG","13",NA,"14"
"201",53235253,294882359,"moonybears","11.8",1,"T0",NA,1,"CHIPMUNK","1","NOSNOWBAREGROUND",NA,NA,NA,16695,"73998120",5,"beta test","C23_EK000037.JPG","C23_EK000038.JPG","C23_EK000039.JPG","23",NA,"58"
"202",53235318,294882542,"moonybears","11.8",1,"T0",NA,1,"RACCOON","1","NOSNOWBAREGROUND",NA,NA,NA,16695,"73998717",5,"beta test","C25_EK000007.JPG","C25_EK000008.JPG","C25_EK000009.JPG","25",NA,"94"
"203",53235164,294882620,"OcularSquirrel","11.8",1,"T0",NA,1,"DEERWHITETAILED","1","NOSNOWBAREGROUND","NO",NA,NA,16695,"73998313",5,"beta test","C13_IMG_0058.JPG","C13_IMG_0059.JPG","C13_IMG_0060.JPG","13",NA,"20"
"204",53235305,294882626,"moonybears","11.8",1,"T0",NA,1,"BLUEJAY",NA,NA,NA,NA,NA,16695,"73998195",5,"beta test","C23_EK000118.JPG","C23_EK000119.JPG","C23_EK000120.JPG","23",NA,"85"
"205",53235281,294882700,"OcularSquirrel","11.8",1,"T0",NA,1,"DEERWHITETAILED","1","NOSNOWBAREGROUND","NO",NA,NA,16695,"73999447",5,"beta test","C23_EK000085.JPG","C23_EK000086.JPG","C23_EK000087.JPG","23",NA,"74"
"206",53235243,294882820,"moonybears","11.8",1,"T0",NA,1,"FISHER","1","NOSNOWBAREGROUND",NA,NA,NA,16695,"73999600",5,"beta test","C23_EK000016.JPG","C23_EK000017.JPG","C23_EK000018.JPG","23",NA,"51"
"207",53235351,294882893,"moonybears","11.8",1,"T0",NA,1,"DEERWHITETAILED","1","NOSNOWBAREGROUND",NA,NA,NA,16695,"73998152",5,"beta test","C31_IMG_0031.JPG","C31_IMG_0032.JPG","C31_IMG_0033.JPG","31",NA,"110"
"208",53235310,294882946,"moonybears","11.8",1,"T0",NA,1,"DEERWHITETAILED","1","NOSNOWBAREGROUND",NA,NA,NA,16695,"73998859",5,"beta test","C23_EK000130.JPG","C23_EK000131.JPG","C23_EK000132.JPG","23",NA,"89"
"209",53235387,294883059,"moonybears","11.8",1,"T0",NA,1,"OTHERSMALLMAMMAL","1","DUSTING10CM",NA,NA,NA,16695,"73998567",6,"beta test","C31_IMG_0139.JPG","C31_IMG_0140.JPG","C31_IMG_0141.JPG","31",NA,"146"
"210",53235151,294883067,"OcularSquirrel","11.8",1,"T0",NA,1,"DEERWHITETAILED","1","NOSNOWBAREGROUND","NO",NA,NA,16695,"73998257",5,"beta test","C13_IMG_0028.JPG","C13_IMG_0029.JPG","C13_IMG_0030.JPG","13",NA,"10"
"211",53235303,294883400,"moonybears","11.8",1,"T0",NA,1,"OTHERSMALLMAMMAL","1","DUSTING10CM",NA,NA,NA,16695,"73998213",5,"beta test","C23_EK000115.JPG","C23_EK000116.JPG","C23_EK000117.JPG","23",NA,"84"
"212",53235372,294889709,"not-logged-in-ab51fa936f0918af2175","11.8",1,"T0",NA,1,"DEERWHITETAILED","1","NOSNOWBAREGROUND","NO",NA,NA,16695,"73999630",5,"beta test","C31_IMG_0094.JPG","C31_IMG_0095.JPG","C31_IMG_0096.JPG","31",NA,"131"
"213",53235228,294889908,"not-logged-in-ab51fa936f0918af2175","11.8",1,"T0",NA,1,"DEERWHITETAILED","1","NOSNOWBAREGROUND","NO",NA,NA,16695,"73998820",5,"beta test","C13_IMG_0127.JPG","C13_IMG_0128.JPG","C13_IMG_0129.JPG","13",NA,"43"
"214",53235318,294890167,"not-logged-in-ab51fa936f0918af2175","11.8",1,"T0",NA,1,"RACCOON","1","NOSNOWBAREGROUND",NA,NA,NA,16695,"73998717",5,"beta test","C25_EK000007.JPG","C25_EK000008.JPG","C25_EK000009.JPG","25",NA,"94"
"215",53235347,294890415,"not-logged-in-ab51fa936f0918af2175","11.8",1,"T0",NA,1,"CHIPMUNK","1","NOSNOWBAREGROUND",NA,NA,NA,16695,"73999417",5,"beta test","C31_IMG_0022.JPG","C31_IMG_0023.JPG","C31_IMG_0024.JPG","31",NA,"107"
"216",53235268,294899638,"Resi","11.8",1,"T0",NA,1,"SQUIRRELGRAY","1","NOSNOWBAREGROUND",NA,NA,NA,16695,"73999302",5,"beta test","C23_EK000061.JPG","C23_EK000062.JPG","C23_EK000063.JPG","23",NA,"66"
"217",53235158,294900395,"Resi","11.8",1,"T0",NA,1,"DEERWHITETAILED","1","NOSNOWBAREGROUND","NO",NA,NA,16695,"73999324",5,"beta test","C13_IMG_0049.JPG","C13_IMG_0050.JPG","C13_IMG_0051.JPG","13",NA,"17"
"218",53235259,294900795,"Resi","11.8",1,"T0",NA,1,"CHIPMUNK","1","NOSNOWBAREGROUND",NA,NA,NA,16695,"73999204",6,"beta test","C23_EK000046.JPG","C23_EK000047.JPG","C23_EK000048.JPG","23",NA,"61"
"219",53235384,294901133,"Resi","11.8",1,"T0",NA,1,"CHIPMUNK","1","NOSNOWBAREGROUND",NA,NA,NA,16695,"73998312",5,"beta test","C31_IMG_0130.JPG","C31_IMG_0131.JPG","C31_IMG_0132.JPG","31",NA,"143"
"220",53235151,294901500,"Resi","11.8",1,"T0",NA,1,"DEERWHITETAILED","1","NOSNOWBAREGROUND","NO",NA,NA,16695,"73998257",5,"beta test","C13_IMG_0028.JPG","C13_IMG_0029.JPG","C13_IMG_0030.JPG","13",NA,"10"
"221",53235362,294901772,"Resi","11.8",1,"T0",NA,1,"CHIPMUNK","1","NOSNOWBAREGROUND",NA,NA,NA,16695,"73999530",5,"beta test","C31_IMG_0064.JPG","C31_IMG_0065.JPG","C31_IMG_0066.JPG","31",NA,"121"
"222",53235285,294902199,"Resi","11.8",1,"T0",NA,1,"DEERWHITETAILED","1","NOSNOWBAREGROUND","NO",NA,NA,16695,"73998165",5,"beta test","C23_EK000088.JPG","C23_EK000089.JPG","C23_EK000090.JPG","23",NA,"75"
"223",53235266,294902443,"Resi","11.8",1,"T0",NA,1,"CHIPMUNK","1","NOSNOWBAREGROUND",NA,NA,NA,16695,"73999661",6,"beta test","C23_EK000058.JPG","C23_EK000059.JPG","C23_EK000060.JPG","23",NA,"65"
"224",53235377,294902976,"Resi","11.8",1,"T0",NA,1,"SQUIRRELRED","1","NOSNOWBAREGROUND",NA,NA,NA,16695,"73999209",6,"beta test","C31_IMG_0109.JPG","C31_IMG_0110.JPG","C31_IMG_0111.JPG","31",NA,"136"
"225",53235306,294903052,"KenzieN","11.8",1,"T0",NA,1,"SQUIRRELGRAY","1","NOSNOWBAREGROUND",NA,NA,NA,16695,"73998581",6,"beta test","C23_EK000121.JPG","C23_EK000122.JPG","C23_EK000123.JPG","23",NA,"86"
"226",53235248,294903503,"Resi","11.8",1,"T0",NA,1,"SQUIRRELRED","1","NOSNOWBAREGROUND",NA,NA,NA,16695,"73998458",6,"beta test","C23_EK000028.JPG","C23_EK000029.JPG","C23_EK000030.JPG","23",NA,"55"
"227",53235233,294903952,"Resi","11.8",1,"T0",NA,1,"HUMAN",NA,NA,NA,"23","CAMERATRAPPER",16695,"73999527",5,"beta test","C23_EK000001.JPG","C23_EK000002.JPG","C23_EK000003.JPG","23",NA,"46"
"228",53235339,294904454,"Matter01","11.8",1,"T0",NA,1,"SQUIRRELRED","1","NOSNOWBAREGROUND",NA,NA,NA,16695,"73999574",7,"beta test","C31_IMG_0016.JPG","C31_IMG_0017.JPG","C31_IMG_0018.JPG","31",NA,"105"
"229",53235339,294905438,"Resi","11.8",1,"T0",NA,1,"AMERICANPINEMARTEN","1","NOSNOWBAREGROUND",NA,NA,NA,16695,"73999574",7,"beta test","C31_IMG_0016.JPG","C31_IMG_0017.JPG","C31_IMG_0018.JPG","31",NA,"105"
"230",53235241,294905820,"KenzieN","11.8",1,"T0",NA,1,"DEERWHITETAILED","1","NOSNOWBAREGROUND","NO",NA,NA,16695,"73999192",5,"beta test","C23_EK000013.JPG","C23_EK000014.JPG","C23_EK000015.JPG","23",NA,"50"
"231",53235357,294905942,"Resi","11.8",1,"T0",NA,1,"OTHERSMALLMAMMAL","1","NOSNOWBAREGROUND",NA,NA,NA,16695,"73999560",5,"beta test","C31_IMG_0049.JPG","C31_IMG_0050.JPG","C31_IMG_0051.JPG","31",NA,"116"
"232",53235341,294906039,"Matter01","11.8",1,"T0",NA,1,"CHIPMUNK","1","NOSNOWBAREGROUND",NA,NA,NA,16695,"73999580",7,"beta test","C31_IMG_0019.JPG","C31_IMG_0020.JPG","C31_IMG_0021.JPG","31",NA,"106"
"233",53235323,294906435,"KenzieN","11.8",1,"T0",NA,1,"FOXGRAY","1","NOSNOWBAREGROUND",NA,NA,NA,16695,"73999148",5,"beta test","C25_EK000016.JPG","C25_EK000017.JPG","C25_EK000018.JPG","25",NA,"97"
"234",53235356,294907070,"Matter01","11.8",1,"T0",NA,1,"OTHERSMALLMAMMAL","1","NOSNOWBAREGROUND",NA,NA,NA,16695,"73999571",6,"beta test","C31_IMG_0046.JPG","C31_IMG_0047.JPG","C31_IMG_0048.JPG","31",NA,"115"
"235",53235407,294907956,"Matter01","11.8",1,"T0",NA,1,"DEERWHITETAILED","1","NOSNOWBAREGROUND","YES",NA,NA,16695,"73998739",7,"beta test","C31_IMG_0184.JPG","C31_IMG_0185.JPG","C31_IMG_0186.JPG","31",NA,"161"
"236",53235243,294908125,"Resi","11.8",1,"T0",NA,1,"FISHER","1","NOSNOWBAREGROUND",NA,NA,NA,16695,"73999600",5,"beta test","C23_EK000016.JPG","C23_EK000017.JPG","C23_EK000018.JPG","23",NA,"51"
"237",53235266,294908163,"not-logged-in-48fb4ee16a0d8fb1473d","11.8",1,"T0",NA,1,"SQUIRRELGRAY","1","NOSNOWBAREGROUND",NA,NA,NA,16695,"73999661",6,"beta test","C23_EK000058.JPG","C23_EK000059.JPG","C23_EK000060.JPG","23",NA,"65"
"238",53235387,294908236,"Matter01","11.8",1,"T0",NA,1,"OTHERSMALLMAMMAL","1","NOSNOWBAREGROUND",NA,NA,NA,16695,"73998567",6,"beta test","C31_IMG_0139.JPG","C31_IMG_0140.JPG","C31_IMG_0141.JPG","31",NA,"146"
"239",53235382,294908245,"Resi","11.8",1,"T0",NA,1,"BLUEJAY",NA,NA,NA,NA,NA,16695,"73998132",6,"beta test","C31_IMG_0124.JPG","C31_IMG_0125.JPG","C31_IMG_0126.JPG","31",NA,"141"
"240",53235317,294908311,"not-logged-in-48fb4ee16a0d8fb1473d","11.8",1,"T0",NA,1,"DEERWHITETAILED","1","NOSNOWBAREGROUND","NO",NA,NA,16695,"73998726",5,"beta test","C25_EK000004.JPG","C25_EK000005.JPG","C25_EK000006.JPG","25",NA,"93"
"241",53235367,294908555,"Resi","11.8",1,"T0",NA,1,"OTHERSMALLMAMMAL","1","NOSNOWBAREGROUND",NA,NA,NA,16695,"73998307",5,"beta test","C31_IMG_0079.JPG","C31_IMG_0080.JPG","C31_IMG_0081.JPG","31",NA,"126"
"242",53235195,294908577,"not-logged-in-48fb4ee16a0d8fb1473d","11.8",1,"T0",NA,1,"DEERWHITETAILED","1","NOSNOWBAREGROUND","NO",NA,NA,16695,"73998741",5,"beta test","C13_IMG_0088.JPG","C13_IMG_0089.JPG","C13_IMG_0090.JPG","13",NA,"30"
"243",53235239,294908696,"Matter01","11.8",1,"T0",NA,1,"COYOTE","1","NOSNOWBAREGROUND",NA,NA,NA,16695,"73999539",6,"beta test","C23_EK000010.JPG","C23_EK000011.JPG","C23_EK000012.JPG","23",NA,"49"
"244",53235191,294908773,"Resi","11.8",1,"T0",NA,1,"DEERWHITETAILED","1","NOSNOWBAREGROUND","NO",NA,NA,16695,"73998381",5,"beta test","C13_IMG_0082.JPG","C13_IMG_0083.JPG","C13_IMG_0084.JPG","13",NA,"28"
"245",53235362,294908791,"not-logged-in-48fb4ee16a0d8fb1473d","11.8",1,"T0",NA,1,"CHIPMUNK","1","NOSNOWBAREGROUND",NA,NA,NA,16695,"73999530",5,"beta test","C31_IMG_0064.JPG","C31_IMG_0065.JPG","C31_IMG_0066.JPG","31",NA,"121"
"246",53235279,294909012,"Resi","11.8",1,"T0",NA,1,"GROUSERUFFED",NA,NA,NA,NA,NA,16695,"73998973",6,"beta test","C23_EK000082.JPG","C23_EK000083.JPG","C23_EK000084.JPG","23",NA,"73"
"247",53235395,294909052,"not-logged-in-48fb4ee16a0d8fb1473d","11.8",1,"T0",NA,1,"OTHERSMALLMAMMAL","1","NOSNOWBAREGROUND",NA,NA,NA,16695,"73999067",5,"beta test","C31_IMG_0163.JPG","C31_IMG_0164.JPG","C31_IMG_0165.JPG","31",NA,"154"
"248",53235259,294909168,"not-logged-in-48fb4ee16a0d8fb1473d","11.8",1,"T0",NA,1,"CHIPMUNK","1","NOSNOWBAREGROUND",NA,NA,NA,16695,"73999204",6,"beta test","C23_EK000046.JPG","C23_EK000047.JPG","C23_EK000048.JPG","23",NA,"61"
"249",53235206,294909318,"Resi","11.8",1,"T0",NA,1,"OTHERSMALLMAMMAL","1","NOSNOWBAREGROUND",NA,NA,NA,16695,"73998372",6,"beta test","C13_IMG_0100.JPG","C13_IMG_0101.JPG","C13_IMG_0102.JPG","13",NA,"34"
"250",53235417,294909411,"not-logged-in-48fb4ee16a0d8fb1473d","11.8",1,"T0",NA,1,"DEERWHITETAILED","1","DUSTING10CM","NO",NA,NA,16695,"73998430",5,"beta test","C31_IMG_0196.JPG","C31_IMG_0197.JPG","C31_IMG_0198.JPG","31",NA,"165"
"251",53235400,294909688,"Resi","11.8",1,"T0",NA,1,"SQUIRRELRED","1","NOSNOWBAREGROUND",NA,NA,NA,16695,"73999334",7,"beta test","C31_IMG_0172.JPG","C31_IMG_0173.JPG","C31_IMG_0174.JPG","31",NA,"157"
"252",53235225,294909690,"not-logged-in-48fb4ee16a0d8fb1473d","11.8",1,"T0",NA,1,"DEERWHITETAILED","1","NOSNOWBAREGROUND","NO",NA,NA,16695,"73999320",6,"beta test","C13_IMG_0121.JPG","C13_IMG_0122.JPG","C13_IMG_0123.JPG","13",NA,"41"
"253",53235341,294909803,"Resi","11.8",1,"T0",NA,1,"CHIPMUNK","1","NOSNOWBAREGROUND",NA,NA,NA,16695,"73999580",7,"beta test","C31_IMG_0019.JPG","C31_IMG_0020.JPG","C31_IMG_0021.JPG","31",NA,"106"
"254",53235247,294910126,"Resi","11.8",1,"T0",NA,1,"MINK","1","NOSNOWBAREGROUND",NA,NA,NA,16695,"73999152",6,"beta test","C23_EK000025.JPG","C23_EK000026.JPG","C23_EK000027.JPG","23",NA,"54"
"255",53235320,294910175,"not-logged-in-48fb4ee16a0d8fb1473d","11.8",1,"T0",NA,1,"OTHERBIRD",NA,NA,NA,NA,NA,16695,"73999365",5,"beta test","C25_EK000013.JPG","C25_EK000014.JPG","C25_EK000015.JPG","25",NA,"96"
"256",53235315,294910349,"not-logged-in-48fb4ee16a0d8fb1473d","11.8",1,"T0",NA,1,"DEERWHITETAILED","1","DUSTING10CM","NO",NA,NA,16695,"73999154",6,"beta test","C23_EK000136.JPG","C23_EK000137.JPG","C23_EK000138.JPG","23",NA,"91"
"257",53235256,294910455,"Resi","11.8",1,"T0",NA,1,"DEERWHITETAILED","1","NOSNOWBAREGROUND","NO",NA,NA,16695,"73999538",5,"beta test","C23_EK000043.JPG","C23_EK000044.JPG","C23_EK000045.JPG","23",NA,"60"
"258",53235407,294910519,"not-logged-in-48fb4ee16a0d8fb1473d","11.8",1,"T0",NA,1,"DEERWHITETAILED","1","NOSNOWBAREGROUND","NO",NA,NA,16695,"73998739",7,"beta test","C31_IMG_0184.JPG","C31_IMG_0185.JPG","C31_IMG_0186.JPG","31",NA,"161"
"259",53235396,294910676,"Resi","11.8",1,"T0",NA,1,"SQUIRRELRED","1","NOSNOWBAREGROUND",NA,NA,NA,16695,"73999509",5,"beta test","C31_IMG_0166.JPG","C31_IMG_0167.JPG","C31_IMG_0168.JPG","31",NA,"155"
"260",53235400,294910715,"not-logged-in-48fb4ee16a0d8fb1473d","11.8",1,"T0",NA,1,"SQUIRRELRED","1","NOSNOWBAREGROUND",NA,NA,NA,16695,"73999334",7,"beta test","C31_IMG_0172.JPG","C31_IMG_0173.JPG","C31_IMG_0174.JPG","31",NA,"157"
"261",53235276,294910895,"not-logged-in-48fb4ee16a0d8fb1473d","11.8",1,"T0",NA,1,"DEERWHITETAILED","1","NOSNOWBAREGROUND","NO",NA,NA,16695,"73999383",5,"beta test","C23_EK000076.JPG","C23_EK000077.JPG","C23_EK000078.JPG","23",NA,"71"
"262",53235359,294910908,"Resi","11.8",1,"T0",NA,1,"FOXRED","1","NOSNOWBAREGROUND",NA,NA,NA,16695,"73998932",5,"beta test","C31_IMG_0055.JPG","C31_IMG_0056.JPG","C31_IMG_0057.JPG","31",NA,"118"
"263",53235341,294911029,"not-logged-in-48fb4ee16a0d8fb1473d","11.8",1,"T0",NA,1,"CHIPMUNK","1","NOSNOWBAREGROUND",NA,NA,NA,16695,"73999580",7,"beta test","C31_IMG_0019.JPG","C31_IMG_0020.JPG","C31_IMG_0021.JPG","31",NA,"106"
"264",53235332,294911151,"not-logged-in-48fb4ee16a0d8fb1473d","11.8",1,"T0",NA,1,"DEERWHITETAILED","1","NOSNOWBAREGROUND","NO",NA,NA,16695,"73999014",5,"beta test","C31_IMG_0001.JPG","C31_IMG_0002.JPG","C31_IMG_0003.JPG","31",NA,"100"
"265",53235351,294911279,"not-logged-in-48fb4ee16a0d8fb1473d","11.8",1,"T0",NA,1,"DEERWHITETAILED","1","NOSNOWBAREGROUND","NO",NA,NA,16695,"73998152",5,"beta test","C31_IMG_0031.JPG","C31_IMG_0032.JPG","C31_IMG_0033.JPG","31",NA,"110"
"266",53235354,294911478,"not-logged-in-48fb4ee16a0d8fb1473d","11.8",1,"T0",NA,1,"OTHERSMALLMAMMAL","1","NOSNOWBAREGROUND",NA,NA,NA,16695,"73998751",5,"beta test","C31_IMG_0040.JPG","C31_IMG_0041.JPG","C31_IMG_0042.JPG","31",NA,"113"
"267",53235393,294911544,"Resi","11.8",1,"T0",NA,1,"FOXGRAY","1","NOSNOWBAREGROUND",NA,NA,NA,16695,"73998958",6,"beta test","C31_IMG_0157.JPG","C31_IMG_0158.JPG","C31_IMG_0159.JPG","31",NA,"152"
"268",53235198,294911655,"not-logged-in-48fb4ee16a0d8fb1473d","11.8",1,"T0",NA,1,"DEERWHITETAILED","1","NOSNOWBAREGROUND","NO",NA,NA,16695,"73999487",6,"beta test","C13_IMG_0091.JPG","C13_IMG_0092.JPG","C13_IMG_0093.JPG","13",NA,"31"
"269",53235230,294911708,"Resi","11.8",1,"T0",NA,1,"DEERWHITETAILED","1","NOSNOWBAREGROUND","NO",NA,NA,16695,"73999566",5,"beta test","C13_IMG_0130.JPG","C13_IMG_0131.JPG","C13_IMG_0132.JPG","13",NA,"44"
"270",53235279,294911814,"not-logged-in-48fb4ee16a0d8fb1473d","11.8",1,"T0",NA,1,"GROUSERUFFED",NA,NA,NA,NA,NA,16695,"73998973",6,"beta test","C23_EK000082.JPG","C23_EK000083.JPG","C23_EK000084.JPG","23",NA,"73"
"271",53235241,294911867,"Resi","11.8",1,"T0",NA,1,"DEERWHITETAILED","1","NOSNOWBAREGROUND",NA,NA,NA,16695,"73999192",5,"beta test","C23_EK000013.JPG","C23_EK000014.JPG","C23_EK000015.JPG","23",NA,"50"
"272",53235157,294911957,"Resi","11.8",1,"T0",NA,1,"DEERWHITETAILED","1","NOSNOWBAREGROUND",NA,NA,NA,16695,"73999111",5,"beta test","C13_IMG_0046.JPG","C13_IMG_0047.JPG","C13_IMG_0048.JPG","13",NA,"16"
"273",53235347,294912040,"Resi","11.8",1,"T0",NA,1,"CHIPMUNK","1","NOSNOWBAREGROUND",NA,NA,NA,16695,"73999417",5,"beta test","C31_IMG_0022.JPG","C31_IMG_0023.JPG","C31_IMG_0024.JPG","31",NA,"107"
"274",53235318,294912206,"not-logged-in-48fb4ee16a0d8fb1473d","11.8",1,"T0",NA,1,"RACCOON","1","NOSNOWBAREGROUND",NA,NA,NA,16695,"73998717",5,"beta test","C25_EK000007.JPG","C25_EK000008.JPG","C25_EK000009.JPG","25",NA,"94"
"275",53235417,294912288,"Resi","11.8",1,"T0",NA,1,"DEERWHITETAILED","1","DUSTING10CM","NO",NA,NA,16695,"73998430",5,"beta test","C31_IMG_0196.JPG","C31_IMG_0197.JPG","C31_IMG_0198.JPG","31",NA,"165"
"276",53235154,294912319,"not-logged-in-48fb4ee16a0d8fb1473d","11.8",1,"T0",NA,1,"DEERWHITETAILED","1","NOSNOWBAREGROUND","NO",NA,NA,16695,"73999108",5,"beta test","C13_IMG_0037.JPG","C13_IMG_0038.JPG","C13_IMG_0039.JPG","13",NA,"13"
"277",53235261,294912407,"Resi","11.8",1,"T0",NA,1,"DEERWHITETAILED","1","NOSNOWBAREGROUND","NO",NA,NA,16695,"73999356",5,"beta test","C23_EK000049.JPG","C23_EK000050.JPG","C23_EK000051.JPG","23",NA,"62"
"278",53235374,294912699,"Resi","11.8",1,"T0",NA,1,"CHIPMUNK","1","NOSNOWBAREGROUND",NA,NA,NA,16695,"73998714",6,"beta test","C31_IMG_0100.JPG","C31_IMG_0101.JPG","C31_IMG_0102.JPG","31",NA,"133"
"279",53235355,294912709,"not-logged-in-48fb4ee16a0d8fb1473d","11.8",1,"T0",NA,1,"OTHERSMALLMAMMAL","1","NOSNOWBAREGROUND",NA,NA,NA,16695,"73998311",6,"beta test","C31_IMG_0043.JPG","C31_IMG_0044.JPG","C31_IMG_0045.JPG","31",NA,"114"
"280",53235174,294912867,"not-logged-in-48fb4ee16a0d8fb1473d","11.8",1,"T0",NA,1,"OTHERSMALLMAMMAL","1","NOSNOWBAREGROUND",NA,NA,NA,16695,"73998854",6,"beta test","C13_IMG_0067.JPG","C13_IMG_0068.JPG","C13_IMG_0069.JPG","13",NA,"23"
"281",53235371,294912874,"Resi","11.8",1,"T0",NA,1,"OTHERSMALLMAMMAL","1","NOSNOWBAREGROUND",NA,NA,NA,16695,"73999101",7,"beta test","C31_IMG_0091.JPG","C31_IMG_0092.JPG","C31_IMG_0093.JPG","31",NA,"130"
"282",53235316,294912970,"Resi","11.8",1,"T0",NA,1,"DEERWHITETAILED","1","NOSNOWBAREGROUND","NO",NA,NA,16695,"73998385",5,"beta test","C25_EK000002.JPG","C25_EK000001.JPG","C25_EK000003.JPG","25",NA,"92"
"283",53235375,294913048,"not-logged-in-48fb4ee16a0d8fb1473d","11.8",1,"T0",NA,1,"SQUIRRELGRAY","1","NOSNOWBAREGROUND",NA,NA,NA,16695,"73998582",5,"beta test","C31_IMG_0103.JPG","C31_IMG_0104.JPG","C31_IMG_0105.JPG","31",NA,"134"
"284",53235272,294913221,"not-logged-in-48fb4ee16a0d8fb1473d","11.8",1,"T0",NA,1,"CHIPMUNK","1","NOSNOWBAREGROUND",NA,NA,NA,16695,"73999221",5,"beta test","C23_EK000070.JPG","C23_EK000071.JPG","C23_EK000072.JPG","23",NA,"69"
"285",53235393,294913669,"not-logged-in-48fb4ee16a0d8fb1473d","11.8",1,"T0",NA,1,"COYOTE","1","NOSNOWBAREGROUND",NA,NA,NA,16695,"73998958",6,"beta test","C31_IMG_0157.JPG","C31_IMG_0158.JPG","C31_IMG_0159.JPG","31",NA,"152"
"286",53235157,294913789,"not-logged-in-48fb4ee16a0d8fb1473d","11.8",1,"T0",NA,1,"DEERWHITETAILED","1","NOSNOWBAREGROUND","NO",NA,NA,16695,"73999111",5,"beta test","C13_IMG_0046.JPG","C13_IMG_0047.JPG","C13_IMG_0048.JPG","13",NA,"16"
"287",53235149,294913924,"not-logged-in-48fb4ee16a0d8fb1473d","11.8",1,"T0",NA,1,"DEERWHITETAILED","1","NOSNOWBAREGROUND","NO",NA,NA,16695,"73998151",5,"beta test","C13_IMG_0022.JPG","C13_IMG_0023.JPG","C13_IMG_0024.JPG","13",NA,"8"
"288",53235211,294914662,"not-logged-in-e578491fa6fe250219d9","11.8",1,"T0",NA,1,"DEERWHITETAILED","1","NOSNOWBAREGROUND","NO",NA,NA,16695,"73998640",5,"beta test","C13_IMG_0103.JPG","C13_IMG_0104.JPG","C13_IMG_0105.JPG","13",NA,"35"
"289",53235225,294915183,"DPHughes","11.8",1,"T0",NA,1,"DEERWHITETAILED","1","NOSNOWBAREGROUND","NO",NA,NA,16695,"73999320",6,"beta test","C13_IMG_0121.JPG","C13_IMG_0122.JPG","C13_IMG_0123.JPG","13",NA,"41"
"290",53235353,294915193,"not-logged-in-e578491fa6fe250219d9","11.8",1,"T0",NA,1,"OTHERSMALLMAMMAL","1","NOSNOWBAREGROUND",NA,NA,NA,16695,"73998355",6,"beta test","C31_IMG_0037.JPG","C31_IMG_0038.JPG","C31_IMG_0039.JPG","31",NA,"112"
"291",53235238,294915405,"not-logged-in-e578491fa6fe250219d9","11.8",1,"T0",NA,1,"CHIPMUNK","1","NOSNOWBAREGROUND",NA,NA,NA,16695,"73999421",5,"beta test","C23_EK000007.JPG","C23_EK000008.JPG","C23_EK000009.JPG","23",NA,"48"
"292",53235341,294915655,"not-logged-in-e578491fa6fe250219d9","11.8",1,"T0",NA,1,"CHIPMUNK","1","NOSNOWBAREGROUND",NA,NA,NA,16695,"73999580",7,"beta test","C31_IMG_0019.JPG","C31_IMG_0020.JPG","C31_IMG_0021.JPG","31",NA,"106"
"293",53235397,294915839,"DPHughes","11.8",1,"T0",NA,1,"SQUIRRELGRAY","1","NOSNOWBAREGROUND",NA,NA,NA,16695,"73998370",5,"beta test","C31_IMG_0169.JPG","C31_IMG_0170.JPG","C31_IMG_0171.JPG","31",NA,"156"
"294",53235285,294915956,"not-logged-in-e578491fa6fe250219d9","11.8",1,"T0",NA,1,"DEERWHITETAILED","1","NOSNOWBAREGROUND","NO",NA,NA,16695,"73998165",5,"beta test","C23_EK000088.JPG","C23_EK000089.JPG","C23_EK000090.JPG","23",NA,"75"
"295",53235310,294916278,"DPHughes","11.8",1,"T0",NA,1,"DEERWHITETAILED","1","NOSNOWBAREGROUND","NO",NA,NA,16695,"73998859",5,"beta test","C23_EK000130.JPG","C23_EK000131.JPG","C23_EK000132.JPG","23",NA,"89"
"296",53235355,294916294,"not-logged-in-e578491fa6fe250219d9","11.8",1,"T0",NA,1,"OTHERSMALLMAMMAL","1","NOSNOWBAREGROUND",NA,NA,NA,16695,"73998311",6,"beta test","C31_IMG_0043.JPG","C31_IMG_0044.JPG","C31_IMG_0045.JPG","31",NA,"114"
"297",53235167,294916823,"DPHughes","11.8",1,"T0",NA,1,"OTHERBIRD",NA,NA,NA,NA,NA,16695,"73998788",6,"beta test","C13_IMG_0061.JPG","C13_IMG_0062.JPG","C13_IMG_0063.JPG","13",NA,"21"
"298",53235381,294918117,"DPHughes","11.8",1,"T0",NA,1,"OTHERBIRD",NA,NA,NA,NA,NA,16695,"73999037",7,"beta test","C31_IMG_0121.JPG","C31_IMG_0122.JPG","C31_IMG_0123.JPG","31",NA,"140"
"299",53235222,294918542,"DPHughes","11.8",1,"T0",NA,1,"DEERWHITETAILED","23","NOSNOWBAREGROUND","NO",NA,NA,16695,"73999389",6,"beta test","C13_IMG_0118.JPG","C13_IMG_0119.JPG","C13_IMG_0120.JPG","13",NA,"40"
"300",53235339,294918807,"KarenLongo","11.8",1,"T0",NA,1,"OTHERSMALLMAMMAL","1","NOSNOWBAREGROUND",NA,NA,NA,16695,"73999574",7,"beta test","C31_IMG_0016.JPG","C31_IMG_0017.JPG","C31_IMG_0018.JPG","31",NA,"105"
"301",53235312,294919046,"not-logged-in-a2a64da7a82ec4b0e790","11.8",1,"T0",NA,1,"AMERICANPINEMARTEN","1","DUSTING10CM",NA,NA,NA,16695,"73998642",6,"beta test","C23_EK000133.JPG","C23_EK000134.JPG","C23_EK000135.JPG","23",NA,"90"
"302",53235143,294919297,"KarenLongo","11.8",1,"T0",NA,1,"DEERWHITETAILED","1","NOSNOWBAREGROUND","NO",NA,NA,16695,"73998365",6,"beta test","C13_IMG_0004.JPG","C13_IMG_0005.JPG","C13_IMG_0006.JPG","13",NA,"2"
"303",53235292,294919755,"KenzieN","11.8",1,"T0",NA,1,"SQUIRRELRED","1","NOSNOWBAREGROUND",NA,NA,NA,16695,"73999460",6,"beta test","C23_EK000097.JPG","C23_EK000098.JPG","C23_EK000099.JPG","23",NA,"78"
"304",53235153,294919922,"KarenLongo","11.8",1,"T0",NA,1,"DEERWHITETAILED","1","NOSNOWBAREGROUND","NO",NA,NA,16695,"73998523",5,"beta test","C13_IMG_0034.JPG","C13_IMG_0035.JPG","C13_IMG_0036.JPG","13",NA,"12"
"305",53235154,294920153,"KarenLongo","11.8",1,"T0",NA,1,"DEERWHITETAILED","1","NOSNOWBAREGROUND","NO",NA,NA,16695,"73999108",5,"beta test","C13_IMG_0037.JPG","C13_IMG_0038.JPG","C13_IMG_0039.JPG","13",NA,"13"
"306",53235397,294922622,"KenzieN","11.8",1,"T0",NA,1,"SQUIRRELGRAY","1","NOSNOWBAREGROUND",NA,NA,NA,16695,"73998370",5,"beta test","C31_IMG_0169.JPG","C31_IMG_0170.JPG","C31_IMG_0171.JPG","31",NA,"156"
"307",53235361,294922811,"not-logged-in-7ca39cddeb4d09374df3","11.8",1,"T0",NA,1,"PORCUPINE","1","NOSNOWBAREGROUND",NA,NA,NA,16695,"73999492",5,"beta test","C31_IMG_0061.JPG","C31_IMG_0062.JPG","C31_IMG_0063.JPG","31",NA,"120"
"308",53235374,294923369,"KenzieN","11.8",1,"T0",NA,1,"CHIPMUNK","1","NOSNOWBAREGROUND",NA,NA,NA,16695,"73998714",6,"beta test","C31_IMG_0100.JPG","C31_IMG_0101.JPG","C31_IMG_0102.JPG","31",NA,"133"
"309",53235370,294923496,"Naturalwitch","11.8",1,"T0",NA,1,"OTHERSMALLMAMMAL","1","NOSNOWBAREGROUND",NA,NA,NA,16695,"73999026",5,"beta test","C31_IMG_0088.JPG","C31_IMG_0089.JPG","C31_IMG_0090.JPG","31",NA,"129"
"310",53235153,294923500,"not-logged-in-7ca39cddeb4d09374df3","11.8",1,"T0",NA,1,"DEERWHITETAILED","1","NOSNOWBAREGROUND","NO",NA,NA,16695,"73998523",5,"beta test","C13_IMG_0034.JPG","C13_IMG_0035.JPG","C13_IMG_0036.JPG","13",NA,"12"
"311",53235276,294923716,"KenzieN","11.8",1,"T0",NA,1,"DEERWHITETAILED","1","NOSNOWBAREGROUND","NO",NA,NA,16695,"73999383",5,"beta test","C23_EK000076.JPG","C23_EK000077.JPG","C23_EK000078.JPG","23",NA,"71"
"312",53235233,294923721,"not-logged-in-7ca39cddeb4d09374df3","11.8",1,"T0",NA,1,"HUMAN",NA,NA,NA,"1","CAMERATRAPPER",16695,"73999527",5,"beta test","C23_EK000001.JPG","C23_EK000002.JPG","C23_EK000003.JPG","23",NA,"46"
"313",53235297,294924213,"not-logged-in-7ca39cddeb4d09374df3","11.8",1,"T0",NA,1,"COYOTE","1","NOSNOWBAREGROUND",NA,NA,NA,16695,"73998442",5,"beta test","C23_EK000106.JPG","C23_EK000107.JPG","C23_EK000108.JPG","23",NA,"81"
"314",53235142,294924520,"KenzieN","11.8",1,"T0",NA,1,"HUMAN",NA,NA,NA,"1","OTHER",16695,"73999348",5,"beta test","C13_IMG_0001.JPG","C13_IMG_0002.JPG","C13_IMG_0003.JPG","13",NA,"1"
"315",53235388,294924605,"Naturalwitch","11.8",1,"T0",NA,1,"OTHERBIRD",NA,NA,NA,NA,NA,16695,"73999176",5,"beta test","C31_IMG_0142.JPG","C31_IMG_0143.JPG","C31_IMG_0144.JPG","31",NA,"147"
"316",53235211,294924668,"not-logged-in-7ca39cddeb4d09374df3","11.8",1,"T0",NA,1,"DEERWHITETAILED","1","NOSNOWBAREGROUND","NO",NA,NA,16695,"73998640",5,"beta test","C13_IMG_0103.JPG","C13_IMG_0104.JPG","C13_IMG_0105.JPG","13",NA,"35"
"317",53235144,294924841,"not-logged-in-7ca39cddeb4d09374df3","11.8",1,"T0",NA,1,"DEERWHITETAILED","1","NOSNOWBAREGROUND","NO",NA,NA,16695,"73999544",6,"beta test","C13_IMG_0007.JPG","C13_IMG_0008.JPG","C13_IMG_0009.JPG","13",NA,"3"
"318",53235397,294925184,"not-logged-in-7ca39cddeb4d09374df3","11.8",1,"T0",NA,1,"SQUIRRELGRAY","1","NOSNOWBAREGROUND",NA,NA,NA,16695,"73998370",5,"beta test","C31_IMG_0169.JPG","C31_IMG_0170.JPG","C31_IMG_0171.JPG","31",NA,"156"
"319",53235339,294925336,"KenzieN","11.8",1,"T0",NA,1,"RACCOON","1","NOSNOWBAREGROUND",NA,NA,NA,16695,"73999574",7,"beta test","C31_IMG_0016.JPG","C31_IMG_0017.JPG","C31_IMG_0018.JPG","31",NA,"105"
"320",53235316,294925380,"not-logged-in-7ca39cddeb4d09374df3","11.8",1,"T0",NA,1,"DEERWHITETAILED","1","NOSNOWBAREGROUND","NO",NA,NA,16695,"73998385",5,"beta test","C25_EK000002.JPG","C25_EK000001.JPG","C25_EK000003.JPG","25",NA,"92"
"321",53235317,294925527,"not-logged-in-7ca39cddeb4d09374df3","11.8",1,"T0",NA,1,"DEERWHITETAILED","1","NOSNOWBAREGROUND","NO",NA,NA,16695,"73998726",5,"beta test","C25_EK000004.JPG","C25_EK000005.JPG","C25_EK000006.JPG","25",NA,"93"
"322",53235309,294925650,"KenzieN","11.8",1,"T0",NA,1,"DEERWHITETAILED","1","NOSNOWBAREGROUND",NA,NA,NA,16695,"73998469",5,"beta test","C23_EK000127.JPG","C23_EK000128.JPG","C23_EK000129.JPG","23",NA,"88"
"323",53235307,294925741,"not-logged-in-7ca39cddeb4d09374df3","11.8",1,"T0",NA,1,"DEERWHITETAILED","1","NOSNOWBAREGROUND","NO",NA,NA,16695,"73998688",6,"beta test","C23_EK000124.JPG","C23_EK000125.JPG","C23_EK000126.JPG","23",NA,"87"
"324",53235318,294925906,"not-logged-in-7ca39cddeb4d09374df3","11.8",1,"T0",NA,1,"RACCOON","1","NOSNOWBAREGROUND",NA,NA,NA,16695,"73998717",5,"beta test","C25_EK000007.JPG","C25_EK000008.JPG","C25_EK000009.JPG","25",NA,"94"
"325",53235248,294925972,"KenzieN","11.8",1,"T0",NA,1,"SQUIRRELGRAY","1","NOSNOWBAREGROUND",NA,NA,NA,16695,"73998458",6,"beta test","C23_EK000028.JPG","C23_EK000029.JPG","C23_EK000030.JPG","23",NA,"55"
"326",53235317,294926176,"KenzieN","11.8",1,"T0",NA,1,"DEERWHITETAILED","1","NOSNOWBAREGROUND","NO",NA,NA,16695,"73998726",5,"beta test","C25_EK000004.JPG","C25_EK000005.JPG","C25_EK000006.JPG","25",NA,"93"
"327",53235341,294926267,"Naturalwitch","11.8",1,"T0",NA,1,"CHIPMUNK","1","NOSNOWBAREGROUND",NA,NA,NA,16695,"73999580",7,"beta test","C31_IMG_0019.JPG","C31_IMG_0020.JPG","C31_IMG_0021.JPG","31",NA,"106"
"328",53235341,294926406,"KenzieN","11.8",1,"T0",NA,1,"CHIPMUNK","1","NOSNOWBAREGROUND",NA,NA,NA,16695,"73999580",7,"beta test","C31_IMG_0019.JPG","C31_IMG_0020.JPG","C31_IMG_0021.JPG","31",NA,"106"
"329",53235319,294926455,"not-logged-in-7ca39cddeb4d09374df3","11.8",1,"T0",NA,1,"FOXGRAY","1","NOSNOWBAREGROUND",NA,NA,NA,16695,"73998796",5,"beta test","C25_EK000010.JPG","C25_EK000011.JPG","C25_EK000012.JPG","25",NA,"95"
"330",53235334,294926541,"KenzieN","11.8",1,"T0",NA,1,"DEERWHITETAILED","1","NOSNOWBAREGROUND","NO",NA,NA,16695,"73998093",7,"beta test","C31_IMG_0004.JPG","C31_IMG_0005.JPG","C31_IMG_0006.JPG","31",NA,"101"
"331",53235247,294927015,"KenzieN","11.8",1,"T0",NA,1,"FOXRED","1","NOSNOWBAREGROUND",NA,NA,NA,16695,"73999152",6,"beta test","C23_EK000025.JPG","C23_EK000026.JPG","C23_EK000027.JPG","23",NA,"54"
"332",53235186,294927057,"not-logged-in-7ca39cddeb4d09374df3","11.8",1,"T0",NA,1,"DEERWHITETAILED","1","NOSNOWBAREGROUND","NO",NA,NA,16695,"73998361",5,"beta test","C13_IMG_0079.JPG","C13_IMG_0080.JPG","C13_IMG_0081.JPG","13",NA,"27"
"333",53235158,294927063,"Naturalwitch","11.8",1,"T0",NA,1,"DEERWHITETAILED","1","NOSNOWBAREGROUND","NO",NA,NA,16695,"73999324",5,"beta test","C13_IMG_0049.JPG","C13_IMG_0050.JPG","C13_IMG_0051.JPG","13",NA,"17"
"334",53235268,294927354,"KenzieN","11.8",1,"T0",NA,1,"CHIPMUNK","1","NOSNOWBAREGROUND",NA,NA,NA,16695,"73999302",5,"beta test","C23_EK000061.JPG","C23_EK000062.JPG","C23_EK000063.JPG","23",NA,"66"
"335",53235263,294927404,"Naturalwitch","11.8",1,"T0",NA,1,"RACCOON","1","NOSNOWBAREGROUND",NA,NA,NA,16695,"73999256",5,"beta test","C23_EK000052.JPG","C23_EK000053.JPG","C23_EK000054.JPG","23",NA,"63"
"336",53235193,294927510,"not-logged-in-7ca39cddeb4d09374df3","11.8",1,"T0",NA,1,"DEERWHITETAILED","1","NOSNOWBAREGROUND","NO",NA,NA,16695,"73998189",5,"beta test","C13_IMG_0085.JPG","C13_IMG_0086.JPG","C13_IMG_0087.JPG","13",NA,"29"
"337",53235375,294927764,"KenzieN","11.8",1,"T0",NA,1,"SQUIRRELRED","1","NOSNOWBAREGROUND",NA,NA,NA,16695,"73998582",5,"beta test","C31_IMG_0103.JPG","C31_IMG_0104.JPG","C31_IMG_0105.JPG","31",NA,"134"
"338",53235151,294927797,"Naturalwitch","11.8",1,"T0",NA,1,"DEERWHITETAILED","1","NOSNOWBAREGROUND","NO",NA,NA,16695,"73998257",5,"beta test","C13_IMG_0028.JPG","C13_IMG_0029.JPG","C13_IMG_0030.JPG","13",NA,"10"
"339",53235247,294928045,"not-logged-in-7ca39cddeb4d09374df3","11.8",1,"T0",NA,1,"FOXRED","1","NOSNOWBAREGROUND",NA,NA,NA,16695,"73999152",6,"beta test","C23_EK000025.JPG","C23_EK000026.JPG","C23_EK000027.JPG","23",NA,"54"
"340",53235407,294928371,"not-logged-in-7ca39cddeb4d09374df3","11.8",1,"T0",NA,1,"DEERWHITETAILED","1","NOSNOWBAREGROUND","NO",NA,NA,16695,"73998739",7,"beta test","C31_IMG_0184.JPG","C31_IMG_0185.JPG","C31_IMG_0186.JPG","31",NA,"161"
"341",53235371,294929119,"Naturalwitch","11.8",1,"T0",NA,1,"OTHERSMALLMAMMAL","23","NOSNOWBAREGROUND",NA,NA,NA,16695,"73999101",7,"beta test","C31_IMG_0091.JPG","C31_IMG_0092.JPG","C31_IMG_0093.JPG","31",NA,"130"
"342",53235405,294929288,"KenzieN","11.8",1,"T0",NA,1,"OTHERSMALLMAMMAL","1","NOSNOWBAREGROUND",NA,NA,NA,16695,"73999071",5,"beta test","C31_IMG_0178.JPG","C31_IMG_0179.JPG","C31_IMG_0180.JPG","31",NA,"159"
"343",53235389,294929369,"not-logged-in-7ca39cddeb4d09374df3","11.8",1,"T0",NA,1,"BLUEJAY",NA,NA,NA,NA,NA,16695,"73998646",5,"beta test","C31_IMG_0145.JPG","C31_IMG_0146.JPG","C31_IMG_0147.JPG","31",NA,"148"
"344",53235150,294929465,"KenzieN","11.8",1,"T0",NA,1,"DEERWHITETAILED","1","NOSNOWBAREGROUND","NO",NA,NA,16695,"73999444",5,"beta test","C13_IMG_0025.JPG","C13_IMG_0026.JPG","C13_IMG_0027.JPG","13",NA,"9"
"345",53235153,294929855,"KenzieN","11.8",1,"T0",NA,1,"DEERWHITETAILED","1","NOSNOWBAREGROUND",NA,NA,NA,16695,"73998523",5,"beta test","C13_IMG_0034.JPG","C13_IMG_0035.JPG","C13_IMG_0036.JPG","13",NA,"12"
"346",53235379,294930670,"KenzieN","11.8",1,"T0",NA,1,"DEERWHITETAILED","3","NOSNOWBAREGROUND","NO",NA,NA,16695,"73999079",5,"beta test","C31_IMG_0115.JPG","C31_IMG_0116.JPG","C31_IMG_0117.JPG","31",NA,"138"
"347",53235272,294930829,"not-logged-in-7ca39cddeb4d09374df3","11.8",1,"T0",NA,1,"CHIPMUNK","1","NOSNOWBAREGROUND",NA,NA,NA,16695,"73999221",5,"beta test","C23_EK000070.JPG","C23_EK000071.JPG","C23_EK000072.JPG","23",NA,"69"
"348",53235373,294930979,"KenzieN","11.8",1,"T0",NA,1,"FOXGRAY","1","NOSNOWBAREGROUND",NA,NA,NA,16695,"73998465",6,"beta test","C31_IMG_0097.JPG","C31_IMG_0098.JPG","C31_IMG_0099.JPG","31",NA,"132"
"349",53235378,294931155,"not-logged-in-7ca39cddeb4d09374df3","11.8",1,"T0",NA,1,"DEERWHITETAILED","1","NOSNOWBAREGROUND","NO",NA,NA,16695,"73998503",6,"beta test","C31_IMG_0112.JPG","C31_IMG_0113.JPG","C31_IMG_0114.JPG","31",NA,"137"
"350",53235155,294931384,"KenzieN","11.8",1,"T0",NA,1,"DEERWHITETAILED","1","NOSNOWBAREGROUND","NO",NA,NA,16695,"73999170",5,"beta test","C13_IMG_0040.JPG","C13_IMG_0041.JPG","C13_IMG_0042.JPG","13",NA,"14"
"351",53235382,294931860,"KenzieN","11.8",1,"T0",NA,1,"BLUEJAY",NA,NA,NA,NA,NA,16695,"73998132",6,"beta test","C31_IMG_0124.JPG","C31_IMG_0125.JPG","C31_IMG_0126.JPG","31",NA,"141"
"352",53235413,294931928,"not-logged-in-7ca39cddeb4d09374df3","11.8",1,"T0",NA,1,"MINK","1","NOSNOWBAREGROUND",NA,NA,NA,16695,"73999116",7,"beta test","C31_IMG_0190.JPG","C31_IMG_0191.JPG","C31_IMG_0192.JPG","31",NA,"163"
"353",53235238,294932064,"KenzieN","11.8",1,"T0",NA,1,"CHIPMUNK","1","NOSNOWBAREGROUND",NA,NA,NA,16695,"73999421",5,"beta test","C23_EK000007.JPG","C23_EK000008.JPG","C23_EK000009.JPG","23",NA,"48"
"354",53235351,294932175,"not-logged-in-7ca39cddeb4d09374df3","11.8",1,"T0",NA,1,"DEERWHITETAILED","1","NOSNOWBAREGROUND","NO",NA,NA,16695,"73998152",5,"beta test","C31_IMG_0031.JPG","C31_IMG_0032.JPG","C31_IMG_0033.JPG","31",NA,"110"
"355",53235155,294932355,"footnotesoldier","11.8",1,"T0",NA,1,"DEERWHITETAILED","1","NOSNOWBAREGROUND","NO",NA,NA,16695,"73999170",5,"beta test","C13_IMG_0040.JPG","C13_IMG_0041.JPG","C13_IMG_0042.JPG","13",NA,"14"
"356",53235150,294932753,"kochbs","11.8",1,"T0",NA,1,"DEERWHITETAILED","1","NOSNOWBAREGROUND","NO",NA,NA,16695,"73999444",5,"beta test","C13_IMG_0025.JPG","C13_IMG_0026.JPG","C13_IMG_0027.JPG","13",NA,"9"
"357",53235245,294933037,"footnotesoldier","11.8",1,"T0",NA,1,"OTHERSMALLMAMMAL","1","NOSNOWBAREGROUND",NA,NA,NA,16695,"73998777",6,"beta test","C23_EK000022.JPG","C23_EK000023.JPG","C23_EK000024.JPG","23",NA,"53"
"358",53235417,294933063,"not-logged-in-7ca39cddeb4d09374df3","11.8",1,"T0",NA,1,"DEERWHITETAILED","1","DUSTING10CM","NO",NA,NA,16695,"73998430",5,"beta test","C31_IMG_0196.JPG","C31_IMG_0197.JPG","C31_IMG_0198.JPG","31",NA,"165"
"359",53235367,294933464,"not-logged-in-7ca39cddeb4d09374df3","11.8",1,"T0",NA,1,"OTHERSMALLMAMMAL","1","NOSNOWBAREGROUND",NA,NA,NA,16695,"73998307",5,"beta test","C31_IMG_0079.JPG","C31_IMG_0080.JPG","C31_IMG_0081.JPG","31",NA,"126"
"360",53235401,294933733,"kochbs","11.8",1,"T0",NA,1,"OTHERBIRD",NA,NA,NA,NA,NA,16695,"73998733",5,"beta test","C31_IMG_0175.JPG","C31_IMG_0176.JPG","C31_IMG_0177.JPG","31",NA,"158"
"361",53235228,294933750,"not-logged-in-7ca39cddeb4d09374df3","11.8",1,"T0",NA,1,"DEERWHITETAILED","1","NOSNOWBAREGROUND","NO",NA,NA,16695,"73998820",5,"beta test","C13_IMG_0127.JPG","C13_IMG_0128.JPG","C13_IMG_0129.JPG","13",NA,"43"
"362",53235277,294934032,"not-logged-in-7ca39cddeb4d09374df3","11.8",1,"T0",NA,1,"SQUIRRELGRAY","1","NOSNOWBAREGROUND",NA,NA,NA,16695,"73998470",6,"beta test","C23_EK000079.JPG","C23_EK000080.JPG","C23_EK000081.JPG","23",NA,"72"
"363",53235268,294934365,"not-logged-in-7ca39cddeb4d09374df3","11.8",1,"T0",NA,1,"OTHERSMALLMAMMAL","1","NOSNOWBAREGROUND",NA,NA,NA,16695,"73999302",5,"beta test","C23_EK000061.JPG","C23_EK000062.JPG","C23_EK000063.JPG","23",NA,"66"
"364",53235221,294934620,"not-logged-in-7ca39cddeb4d09374df3","11.8",1,"T0",NA,1,"DEERWHITETAILED","1","NOSNOWBAREGROUND","NO",NA,NA,16695,"73998220",5,"beta test","C13_IMG_0115.JPG","C13_IMG_0116.JPG","C13_IMG_0117.JPG","13",NA,"39"
"365",53235285,294934821,"not-logged-in-7ca39cddeb4d09374df3","11.8",1,"T0",NA,1,"DEERWHITETAILED","1","NOSNOWBAREGROUND","NO",NA,NA,16695,"73998165",5,"beta test","C23_EK000088.JPG","C23_EK000089.JPG","C23_EK000090.JPG","23",NA,"75"
"366",53235359,294935505,"not-logged-in-7ca39cddeb4d09374df3","11.8",1,"T0",NA,1,"FOXRED","1","NOSNOWBAREGROUND",NA,NA,NA,16695,"73998932",5,"beta test","C31_IMG_0055.JPG","C31_IMG_0056.JPG","C31_IMG_0057.JPG","31",NA,"118"
"367",53235295,294935615,"kochbs","11.8",1,"T0",NA,1,"SKUNKSTRIPED","1","NOSNOWBAREGROUND",NA,NA,NA,16695,"73999279",5,"beta test","C23_EK000103.JPG","C23_EK000104.JPG","C23_EK000105.JPG","23",NA,"80"
"368",53235261,294935822,"kochbs","11.8",1,"T0",NA,1,"DEERWHITETAILED","1","NOSNOWBAREGROUND","NO",NA,NA,16695,"73999356",5,"beta test","C23_EK000049.JPG","C23_EK000050.JPG","C23_EK000051.JPG","23",NA,"62"
"369",53235273,294935965,"not-logged-in-7ca39cddeb4d09374df3","11.8",1,"T0",NA,1,"CHIPMUNK","1","NOSNOWBAREGROUND",NA,NA,NA,16695,"73999391",5,"beta test","C23_EK000073.JPG","C23_EK000074.JPG","C23_EK000075.JPG","23",NA,"70"
"370",53235371,294936657,"kochbs","11.8",1,"T0",NA,1,"FOXRED","1","NOSNOWBAREGROUND",NA,NA,NA,16695,"73999101",7,"beta test","C31_IMG_0091.JPG","C31_IMG_0092.JPG","C31_IMG_0093.JPG","31",NA,"130"
"371",53235350,294937152,"not-logged-in-e9cee3e2bbf09a575192","11.8",1,"T0",NA,1,"FISHER","1","NOSNOWBAREGROUND",NA,NA,NA,16695,"73999583",5,"beta test","C31_IMG_0028.JPG","C31_IMG_0029.JPG","C31_IMG_0030.JPG","31",NA,"109"
"372",53235168,294937318,"kochbs","11.8",1,"T0",NA,1,"FOXGRAY","1","NOSNOWBAREGROUND",NA,NA,NA,16695,"73999525",5,"beta test","C13_IMG_0064.JPG","C13_IMG_0065.JPG","C13_IMG_0066.JPG","13",NA,"22"
"373",53235292,294938680,"kochbs","11.8",1,"T0",NA,1,"SQUIRRELGRAY","1","NOSNOWBAREGROUND",NA,NA,NA,16695,"73999460",6,"beta test","C23_EK000097.JPG","C23_EK000098.JPG","C23_EK000099.JPG","23",NA,"78"
"374",53235164,294938763,"JMarchesoni","11.8",1,"T0",NA,1,"DEERWHITETAILED","1","NOSNOWBAREGROUND","NO",NA,NA,16695,"73998313",5,"beta test","C13_IMG_0058.JPG","C13_IMG_0059.JPG","C13_IMG_0060.JPG","13",NA,"20"
"375",53235309,294938910,"kochbs","11.8",1,"T0",NA,1,"DEERWHITETAILED","1","NOSNOWBAREGROUND","NO",NA,NA,16695,"73998469",5,"beta test","C23_EK000127.JPG","C23_EK000128.JPG","C23_EK000129.JPG","23",NA,"88"
"376",53235145,294939938,"kochbs","11.8",1,"T0",NA,1,"OTHERBIRD",NA,NA,NA,NA,NA,16695,"73998606",5,"beta test","C13_IMG_0010.JPG","C13_IMG_0011.JPG","C13_IMG_0012.JPG","13",NA,"4"
"377",53235377,294940522,"kochbs","11.8",1,"T0",NA,1,"SQUIRRELGRAY","1","NOSNOWBAREGROUND",NA,NA,NA,16695,"73999209",6,"beta test","C31_IMG_0109.JPG","C31_IMG_0110.JPG","C31_IMG_0111.JPG","31",NA,"136"
"378",53235368,294940981,"kochbs","11.8",1,"T0",NA,1,"OTHERSMALLMAMMAL","1","NOSNOWBAREGROUND",NA,NA,NA,16695,"73999327",5,"beta test","C31_IMG_0082.JPG","C31_IMG_0083.JPG","C31_IMG_0084.JPG","31",NA,"127"
"379",53235193,294941445,"kochbs","11.8",1,"T0",NA,1,"DEERWHITETAILED","1","NOSNOWBAREGROUND","YES",NA,NA,16695,"73998189",5,"beta test","C13_IMG_0085.JPG","C13_IMG_0086.JPG","C13_IMG_0087.JPG","13",NA,"29"
"380",53235305,294941593,"kochbs","11.8",1,"T0",NA,1,"BLUEJAY",NA,NA,NA,NA,NA,16695,"73998195",5,"beta test","C23_EK000118.JPG","C23_EK000119.JPG","C23_EK000120.JPG","23",NA,"85"
"381",53235355,294942085,"kochbs","11.8",1,"T0",NA,1,"OTHERSMALLMAMMAL","1","NOSNOWBAREGROUND",NA,NA,NA,16695,"73998311",6,"beta test","C31_IMG_0043.JPG","C31_IMG_0044.JPG","C31_IMG_0045.JPG","31",NA,"114"
"382",53235144,294942255,"kochbs","11.8",1,"T0",NA,1,"DEERWHITETAILED","1","NOSNOWBAREGROUND","NO",NA,NA,16695,"73999544",6,"beta test","C13_IMG_0007.JPG","C13_IMG_0008.JPG","C13_IMG_0009.JPG","13",NA,"3"
"383",53235362,294942466,"kochbs","11.8",1,"T0",NA,1,"CHIPMUNK","1","NOSNOWBAREGROUND",NA,NA,NA,16695,"73999530",5,"beta test","C31_IMG_0064.JPG","C31_IMG_0065.JPG","C31_IMG_0066.JPG","31",NA,"121"
"384",53235375,294942711,"kochbs","11.8",1,"T0",NA,1,"SQUIRRELGRAY","1","NOSNOWBAREGROUND",NA,NA,NA,16695,"73998582",5,"beta test","C31_IMG_0103.JPG","C31_IMG_0104.JPG","C31_IMG_0105.JPG","31",NA,"134"
"385",53235244,294943003,"kochbs","11.8",1,"T0",NA,1,"CHIPMUNK","1","NOSNOWBAREGROUND",NA,NA,NA,16695,"73998289",5,"beta test","C23_EK000019.JPG","C23_EK000020.JPG","C23_EK000021.JPG","23",NA,"52"
"386",53235251,294943235,"kochbs","11.8",1,"T0",NA,1,"CHIPMUNK","1","NOSNOWBAREGROUND",NA,NA,NA,16695,"73998953",6,"beta test","C23_EK000034.JPG","C23_EK000035.JPG","C23_EK000036.JPG","23",NA,"57"
"387",53235364,294943519,"kochbs","11.8",1,"T0",NA,1,"OTHERBIRD",NA,NA,NA,NA,NA,16695,"73999628",6,"beta test","C31_IMG_0070.JPG","C31_IMG_0071.JPG","C31_IMG_0072.JPG","31",NA,"123"
"388",53235379,294944166,"kochbs","11.8",1,"T0",NA,1,"DEERWHITETAILED","3","NOSNOWBAREGROUND","NO",NA,NA,16695,"73999079",5,"beta test","C31_IMG_0115.JPG","C31_IMG_0116.JPG","C31_IMG_0117.JPG","31",NA,"138"
"389",53235315,294944413,"kochbs","11.8",1,"T0",NA,1,"DEERWHITETAILED","1","NOSNOWBAREGROUND","NO",NA,NA,16695,"73999154",6,"beta test","C23_EK000136.JPG","C23_EK000137.JPG","C23_EK000138.JPG","23",NA,"91"
"390",53235146,294944832,"kochbs","11.8",1,"T0",NA,1,"OTHERSMALLMAMMAL","1","NOSNOWBAREGROUND",NA,NA,NA,16695,"73998366",5,"beta test","C13_IMG_0013.JPG","C13_IMG_0014.JPG","C13_IMG_0015.JPG","13",NA,"5"
"391",53235391,294945033,"kochbs","11.8",1,"T0",NA,1,"CHIPMUNK","1","NOSNOWBAREGROUND",NA,NA,NA,16695,"73999123",5,"beta test","C31_IMG_0151.JPG","C31_IMG_0152.JPG","C31_IMG_0153.JPG","31",NA,"150"
"392",53235413,294945743,"kochbs","11.8",1,"T0",NA,1,"MINK","1","NOSNOWBAREGROUND",NA,NA,NA,16695,"73999116",7,"beta test","C31_IMG_0190.JPG","C31_IMG_0191.JPG","C31_IMG_0192.JPG","31",NA,"163"
"393",53235243,294946561,"kochbs","11.8",1,"T0",NA,1,"MINK","1","NOSNOWBAREGROUND",NA,NA,NA,16695,"73999600",5,"beta test","C23_EK000016.JPG","C23_EK000017.JPG","C23_EK000018.JPG","23",NA,"51"
"394",53235354,294946744,"kochbs","11.8",1,"T0",NA,1,"OTHERSMALLMAMMAL","1","NOSNOWBAREGROUND",NA,NA,NA,16695,"73998751",5,"beta test","C31_IMG_0040.JPG","C31_IMG_0041.JPG","C31_IMG_0042.JPG","31",NA,"113"
"395",53235225,294946940,"kochbs","11.8",1,"T0",NA,1,"DEERWHITETAILED","1","NOSNOWBAREGROUND","NO",NA,NA,16695,"73999320",6,"beta test","C13_IMG_0121.JPG","C13_IMG_0122.JPG","C13_IMG_0123.JPG","13",NA,"41"
"396",53235418,294947041,"kochbs","11.8",1,"T0",NA,1,"DEERWHITETAILED","1","NOSNOWBAREGROUND","NO",NA,NA,16695,"73998880",6,"beta test","C31_IMG_0199.JPG","C31_IMG_0200.JPG","C31_IMG_0201.JPG","31",NA,"166"
"397",53235363,294947150,"kochbs","11.8",1,"T0",NA,1,"CHIPMUNK","1","NOSNOWBAREGROUND",NA,NA,NA,16695,"73998802",6,"beta test","C31_IMG_0067.JPG","C31_IMG_0068.JPG","C31_IMG_0069.JPG","31",NA,"122"
"398",53235306,294947305,"kochbs","11.8",1,"T0",NA,1,"OTHERSMALLMAMMAL","1","NOSNOWBAREGROUND",NA,NA,NA,16695,"73998581",6,"beta test","C23_EK000121.JPG","C23_EK000122.JPG","C23_EK000123.JPG","23",NA,"86"
"399",53235228,294947484,"kochbs","11.8",1,"T0",NA,1,"DEERWHITETAILED","1","NOSNOWBAREGROUND","NO",NA,NA,16695,"73998820",5,"beta test","C13_IMG_0127.JPG","C13_IMG_0128.JPG","C13_IMG_0129.JPG","13",NA,"43"
"400",53235256,294947632,"kochbs","11.8",1,"T0",NA,1,"DEERWHITETAILED","1","NOSNOWBAREGROUND","NO",NA,NA,16695,"73999538",5,"beta test","C23_EK000043.JPG","C23_EK000044.JPG","C23_EK000045.JPG","23",NA,"60"
"401",53235382,294947838,"kochbs","11.8",1,"T0",NA,1,"BLUEJAY",NA,NA,NA,NA,NA,16695,"73998132",6,"beta test","C31_IMG_0124.JPG","C31_IMG_0125.JPG","C31_IMG_0126.JPG","31",NA,"141"
"402",53235290,294947996,"kochbs","11.8",1,"T0",NA,1,"SQUIRRELGRAY","1","NOSNOWBAREGROUND",NA,NA,NA,16695,"73998095",5,"beta test","C23_EK000094.JPG","C23_EK000095.JPG","C23_EK000096.JPG","23",NA,"77"
"403",53235255,294948158,"kochbs","11.8",1,"T0",NA,1,"DEERWHITETAILED","1","NOSNOWBAREGROUND","NO",NA,NA,16695,"73999639",5,"beta test","C23_EK000040.JPG","C23_EK000041.JPG","C23_EK000042.JPG","23",NA,"59"
"404",53235281,294948278,"kochbs","11.8",1,"T0",NA,1,"DEERWHITETAILED","1","NOSNOWBAREGROUND","NO",NA,NA,16695,"73999447",5,"beta test","C23_EK000085.JPG","C23_EK000086.JPG","C23_EK000087.JPG","23",NA,"74"
"405",53235351,294948400,"kochbs","11.8",1,"T0",NA,1,"DEERWHITETAILED","1","NOSNOWBAREGROUND","NO",NA,NA,16695,"73998152",5,"beta test","C31_IMG_0031.JPG","C31_IMG_0032.JPG","C31_IMG_0033.JPG","31",NA,"110"
"406",53235167,294948531,"kochbs","11.8",1,"T0",NA,1,"OTHERBIRD",NA,NA,NA,NA,NA,16695,"73998788",6,"beta test","C13_IMG_0061.JPG","C13_IMG_0062.JPG","C13_IMG_0063.JPG","13",NA,"21"
"407",53235294,294948738,"kochbs","11.8",1,"T0",NA,1,"OTHERSMALLMAMMAL","1","NOSNOWBAREGROUND",NA,NA,NA,16695,"73998300",5,"beta test","C23_EK000100.JPG","C23_EK000101.JPG","C23_EK000102.JPG","23",NA,"79"
"408",53235332,294948890,"kochbs","11.8",1,"T0",NA,1,"DEERWHITETAILED","1","NOSNOWBAREGROUND","NO",NA,NA,16695,"73999014",5,"beta test","C31_IMG_0001.JPG","C31_IMG_0002.JPG","C31_IMG_0003.JPG","31",NA,"100"
"409",53235214,294948998,"kochbs","11.8",1,"T0",NA,1,"DEERWHITETAILED","1","NOSNOWBAREGROUND","NO",NA,NA,16695,"73998633",5,"beta test","C13_IMG_0109.JPG","C13_IMG_0110.JPG","C13_IMG_0111.JPG","13",NA,"37"
"410",53235227,294949503,"kochbs","11.8",1,"T0",NA,1,"OTHERBIRD",NA,NA,NA,NA,NA,16695,"73999631",5,"beta test","C13_IMG_0124.JPG","C13_IMG_0125.JPG","C13_IMG_0126.JPG","13",NA,"42"
"411",53235310,294949620,"kochbs","11.8",1,"T0",NA,1,"DEERWHITETAILED","1","NOSNOWBAREGROUND","NO",NA,NA,16695,"73998859",5,"beta test","C23_EK000130.JPG","C23_EK000131.JPG","C23_EK000132.JPG","23",NA,"89"
"412",53235406,294949778,"kochbs","11.8",1,"T0",NA,1,"DEERWHITETAILED","1","NOSNOWBAREGROUND","YES",NA,NA,16695,"73998780",6,"beta test","C31_IMG_0181.JPG","C31_IMG_0182.JPG","C31_IMG_0183.JPG","31",NA,"160"
"413",53235384,294950039,"kochbs","11.8",1,"T0",NA,1,"CHIPMUNK","1","NOSNOWBAREGROUND",NA,NA,NA,16695,"73998312",5,"beta test","C31_IMG_0130.JPG","C31_IMG_0131.JPG","C31_IMG_0132.JPG","31",NA,"143"
"414",53235143,294950159,"kochbs","11.8",1,"T0",NA,1,"DEERWHITETAILED","1","NOSNOWBAREGROUND","NO",NA,NA,16695,"73998365",6,"beta test","C13_IMG_0004.JPG","C13_IMG_0005.JPG","C13_IMG_0006.JPG","13",NA,"2"
"415",53235360,294950284,"kochbs","11.8",1,"T0",NA,1,"CHIPMUNK","1","NOSNOWBAREGROUND",NA,NA,NA,16695,"73998122",6,"beta test","C31_IMG_0058.JPG","C31_IMG_0059.JPG","C31_IMG_0060.JPG","31",NA,"119"
"416",53235302,294950894,"kochbs","11.8",1,"T0",NA,1,"OTHERBIRD",NA,NA,NA,NA,NA,16695,"73999229",6,"beta test","C23_EK000112.JPG","C23_EK000113.JPG","C23_EK000114.JPG","23",NA,"83"
"417",53235374,294951025,"kochbs","11.8",1,"T0",NA,1,"CHIPMUNK","1","NOSNOWBAREGROUND",NA,NA,NA,16695,"73998714",6,"beta test","C31_IMG_0100.JPG","C31_IMG_0101.JPG","C31_IMG_0102.JPG","31",NA,"133"
"418",53235148,294951361,"kochbs","11.8",1,"T0",NA,1,"OTHERBIRD",NA,NA,NA,NA,NA,16695,"73998765",6,"beta test","C13_IMG_0019.JPG","C13_IMG_0020.JPG","C13_IMG_0021.JPG","13",NA,"7"
"419",53235367,294951570,"kochbs","11.8",1,"T0",NA,1,"OTHERSMALLMAMMAL","1","NOSNOWBAREGROUND",NA,NA,NA,16695,"73998307",5,"beta test","C31_IMG_0079.JPG","C31_IMG_0080.JPG","C31_IMG_0081.JPG","31",NA,"126"
"420",53235373,294952486,"kochbs","11.8",1,"T0",NA,1,"COYOTE","1","NOSNOWBAREGROUND",NA,NA,NA,16695,"73998465",6,"beta test","C31_IMG_0097.JPG","C31_IMG_0098.JPG","C31_IMG_0099.JPG","31",NA,"132"
"421",53235265,294952589,"kochbs","11.8",1,"T0",NA,1,"CHIPMUNK","1","NOSNOWBAREGROUND",NA,NA,NA,16695,"73998685",6,"beta test","C23_EK000055.JPG","C23_EK000056.JPG","C23_EK000057.JPG","23",NA,"64"
"422",53235307,294952709,"kochbs","11.8",1,"T0",NA,1,"DEERWHITETAILED","1","NOSNOWBAREGROUND","NO",NA,NA,16695,"73998688",6,"beta test","C23_EK000124.JPG","C23_EK000125.JPG","C23_EK000126.JPG","23",NA,"87"
"423",53235359,294953120,"kochbs","11.8",1,"T0",NA,1,"COYOTE","1","NOSNOWBAREGROUND",NA,NA,NA,16695,"73998932",5,"beta test","C31_IMG_0055.JPG","C31_IMG_0056.JPG","C31_IMG_0057.JPG","31",NA,"118"
"424",53235238,294953244,"kochbs","11.8",1,"T0",NA,1,"CHIPMUNK","1","NOSNOWBAREGROUND",NA,NA,NA,16695,"73999421",5,"beta test","C23_EK000007.JPG","C23_EK000008.JPG","C23_EK000009.JPG","23",NA,"48"
"425",53235395,294953507,"kochbs","11.8",1,"T0",NA,1,"CHIPMUNK","1","NOSNOWBAREGROUND",NA,NA,NA,16695,"73999067",5,"beta test","C31_IMG_0163.JPG","C31_IMG_0164.JPG","C31_IMG_0165.JPG","31",NA,"154"
"426",53235323,294954764,"kochbs","11.8",1,"T0",NA,1,"FOXGRAY","1","NOSNOWBAREGROUND",NA,NA,NA,16695,"73999148",5,"beta test","C25_EK000016.JPG","C25_EK000017.JPG","C25_EK000018.JPG","25",NA,"97"
"427",53235306,294954887,"Suem28","11.8",1,"T0",NA,1,"OTHERSMALLMAMMAL","1","NOSNOWBAREGROUND",NA,NA,NA,16695,"73998581",6,"beta test","C23_EK000121.JPG","C23_EK000122.JPG","C23_EK000123.JPG","23",NA,"86"
"428",53235334,294954986,"kochbs","11.8",1,"T0",NA,1,"DEERWHITETAILED","1","NOSNOWBAREGROUND","NO",NA,NA,16695,"73998093",7,"beta test","C31_IMG_0004.JPG","C31_IMG_0005.JPG","C31_IMG_0006.JPG","31",NA,"101"
"429",53235244,294955362,"Suem28","11.8",1,"T0",NA,1,"CHIPMUNK","1","NOSNOWBAREGROUND",NA,NA,NA,16695,"73998289",5,"beta test","C23_EK000019.JPG","C23_EK000020.JPG","C23_EK000021.JPG","23",NA,"52"
"430",53235309,294955681,"Suem28","11.8",1,"T0",NA,1,"DEERWHITETAILED","1","NOSNOWBAREGROUND",NA,NA,NA,16695,"73998469",5,"beta test","C23_EK000127.JPG","C23_EK000128.JPG","C23_EK000129.JPG","23",NA,"88"
"431",53235277,294955741,"kochbs","11.8",1,"T0",NA,1,"AMERICANPINEMARTEN","1","NOSNOWBAREGROUND",NA,NA,NA,16695,"73998470",6,"beta test","C23_EK000079.JPG","C23_EK000080.JPG","C23_EK000081.JPG","23",NA,"72"
"432",53235332,294955918,"LizJ","11.8",1,"T0",NA,1,"DEERWHITETAILED","1","NOSNOWBAREGROUND","NO",NA,NA,16695,"73999014",5,"beta test","C31_IMG_0001.JPG","C31_IMG_0002.JPG","C31_IMG_0003.JPG","31",NA,"100"
"433",53235163,294956034,"kochbs","11.8",1,"T0",NA,1,"OTHERBIRD",NA,NA,NA,NA,NA,16695,"73998137",5,"beta test","C13_IMG_0055.JPG","C13_IMG_0056.JPG","C13_IMG_0057.JPG","13",NA,"19"
"434",53235205,294956229,"kochbs","11.8",1,"T0",NA,1,"OTHERSMALLMAMMAL","1","NOSNOWBAREGROUND",NA,NA,NA,16695,"73999166",5,"beta test","C13_IMG_0097.JPG","C13_IMG_0098.JPG","C13_IMG_0099.JPG","13",NA,"33"
"435",53235325,294956508,"kochbs","11.8",1,"T0",NA,1,"OTHERBIRD",NA,NA,NA,NA,NA,16695,"73999056",6,"beta test","C25_EK000019.JPG","C25_EK000020.JPG","C25_EK000021.JPG","25",NA,"98"
"436",53235147,294956647,"kochbs","11.8",1,"T0",NA,1,"DEERWHITETAILED","1","NOSNOWBAREGROUND","NO",NA,NA,16695,"73998985",5,"beta test","C13_IMG_0016.JPG","C13_IMG_0017.JPG","C13_IMG_0018.JPG","13",NA,"6"
"437",53235372,294956741,"kochbs","11.8",1,"T0",NA,1,"DEERWHITETAILED","1","NOSNOWBAREGROUND","NO",NA,NA,16695,"73999630",5,"beta test","C31_IMG_0094.JPG","C31_IMG_0095.JPG","C31_IMG_0096.JPG","31",NA,"131"
"438",53235417,294956913,"LizJ","11.8",1,"T0",NA,1,"DEERWHITETAILED","1","DUSTING10CM","NO",NA,NA,16695,"73998430",5,"beta test","C31_IMG_0196.JPG","C31_IMG_0197.JPG","C31_IMG_0198.JPG","31",NA,"165"
"439",53235396,294957004,"kochbs","11.8",1,"T0",NA,1,"SQUIRRELGRAY","1","NOSNOWBAREGROUND",NA,NA,NA,16695,"73999509",5,"beta test","C31_IMG_0166.JPG","C31_IMG_0167.JPG","C31_IMG_0168.JPG","31",NA,"155"
"440",53235152,294957111,"LizJ","11.8",1,"T0",NA,1,"DEERWHITETAILED","1","NOSNOWBAREGROUND","NO",NA,NA,16695,"73999614",5,"beta test","C13_IMG_0031.JPG","C13_IMG_0032.JPG","C13_IMG_0033.JPG","13",NA,"11"
"441",53235182,294957256,"LizJ","11.8",1,"T0",NA,1,"DEERWHITETAILED","1","NOSNOWBAREGROUND","NO",NA,NA,16695,"73999096",5,"beta test","C13_IMG_0076.JPG","C13_IMG_0077.JPG","C13_IMG_0078.JPG","13",NA,"26"
"442",53235245,294957320,"kochbs","11.8",1,"T0",NA,1,"OTHERSMALLMAMMAL","1","NOSNOWBAREGROUND",NA,NA,NA,16695,"73998777",6,"beta test","C23_EK000022.JPG","C23_EK000023.JPG","C23_EK000024.JPG","23",NA,"53"
"443",53235285,294957416,"LizJ","11.8",1,"T0",NA,1,"DEERWHITETAILED","1","NOSNOWBAREGROUND","NO",NA,NA,16695,"73998165",5,"beta test","C23_EK000088.JPG","C23_EK000089.JPG","C23_EK000090.JPG","23",NA,"75"
"444",53235329,294957510,"kochbs","11.8",1,"T0",NA,1,"OTHERBIRD",NA,NA,NA,NA,NA,16695,"73999040",5,"beta test","C25_EK000022.JPG","C25_EK000023.JPG","C25_EK000024.JPG","25",NA,"99"
"445",53235379,294957640,"LizJ","11.8",1,"T0",NA,1,"DEERWHITETAILED","23","NOSNOWBAREGROUND","NO",NA,NA,16695,"73999079",5,"beta test","C31_IMG_0115.JPG","C31_IMG_0116.JPG","C31_IMG_0117.JPG","31",NA,"138"
"446",53235393,294957679,"kochbs","11.8",1,"T0",NA,1,"COYOTE","1","NOSNOWBAREGROUND",NA,NA,NA,16695,"73998958",6,"beta test","C31_IMG_0157.JPG","C31_IMG_0158.JPG","C31_IMG_0159.JPG","31",NA,"152"
"447",53235273,294957804,"kochbs","11.8",1,"T0",NA,1,"CHIPMUNK","1","NOSNOWBAREGROUND",NA,NA,NA,16695,"73999391",5,"beta test","C23_EK000073.JPG","C23_EK000074.JPG","C23_EK000075.JPG","23",NA,"70"
"448",53235335,294958030,"kochbs","11.8",1,"T0",NA,1,"OPOSSUM","1","NOSNOWBAREGROUND",NA,NA,NA,16695,"73999646",5,"beta test","C31_IMG_0007.JPG","C31_IMG_0008.JPG","C31_IMG_0009.JPG","31",NA,"102"
"449",53235289,294958360,"kochbs","11.8",1,"T0",NA,1,"OTHERBIRD",NA,NA,NA,NA,NA,16695,"73999232",6,"beta test","C23_EK000091.JPG","C23_EK000092.JPG","C23_EK000093.JPG","23",NA,"76"
"450",53235266,294958416,"kochbs","11.8",1,"T0",NA,1,"CHIPMUNK","1","NOSNOWBAREGROUND",NA,NA,NA,16695,"73999661",6,"beta test","C23_EK000058.JPG","C23_EK000059.JPG","C23_EK000060.JPG","23",NA,"65"
"451",53235234,294958510,"kochbs","11.8",1,"T0",NA,1,"OTHERSMALLMAMMAL","1","NOSNOWBAREGROUND",NA,NA,NA,16695,"73998824",5,"beta test","C23_EK000004.JPG","C23_EK000005.JPG","C23_EK000006.JPG","23",NA,"47"
"452",53235157,294958599,"kochbs","11.8",1,"T0",NA,1,"DEERWHITETAILED","1","NOSNOWBAREGROUND","NO",NA,NA,16695,"73999111",5,"beta test","C13_IMG_0046.JPG","C13_IMG_0047.JPG","C13_IMG_0048.JPG","13",NA,"16"
"453",53235320,294958980,"kochbs","11.8",1,"T0",NA,1,"GROUSERUFFED",NA,NA,NA,NA,NA,16695,"73999365",5,"beta test","C25_EK000013.JPG","C25_EK000014.JPG","C25_EK000015.JPG","25",NA,"96"
"454",53235376,294959273,"kochbs","11.8",1,"T0",NA,1,"CHIPMUNK","1","NOSNOWBAREGROUND",NA,NA,NA,16695,"73999608",5,"beta test","C31_IMG_0106.JPG","C31_IMG_0107.JPG","C31_IMG_0108.JPG","31",NA,"135"
"455",53235155,294959443,"kochbs","11.8",1,"T0",NA,1,"DEERWHITETAILED","23","NOSNOWBAREGROUND","NO",NA,NA,16695,"73999170",5,"beta test","C13_IMG_0040.JPG","C13_IMG_0041.JPG","C13_IMG_0042.JPG","13",NA,"14"
"456",53235156,294959583,"kochbs","11.8",1,"T0",NA,1,"OTHERSMALLMAMMAL","1","NOSNOWBAREGROUND",NA,NA,NA,16695,"73998380",5,"beta test","C13_IMG_0043.JPG","C13_IMG_0044.JPG","C13_IMG_0045.JPG","13",NA,"15"
"457",53235149,294959678,"kochbs","11.8",1,"T0",NA,1,"DEERWHITETAILED","1","NOSNOWBAREGROUND","NO",NA,NA,16695,"73998151",5,"beta test","C13_IMG_0022.JPG","C13_IMG_0023.JPG","C13_IMG_0024.JPG","13",NA,"8"
"458",53235219,294959802,"kochbs","11.8",1,"T0",NA,1,"DEERWHITETAILED","23","NOSNOWBAREGROUND","NO",NA,NA,16695,"73998278",6,"beta test","C13_IMG_0112.JPG","C13_IMG_0113.JPG","C13_IMG_0114.JPG","13",NA,"38"
"459",53235388,294959970,"kochbs","11.8",1,"T0",NA,1,"CHIPMUNK","1","NOSNOWBAREGROUND",NA,NA,NA,16695,"73999176",5,"beta test","C31_IMG_0142.JPG","C31_IMG_0143.JPG","C31_IMG_0144.JPG","31",NA,"147"
"460",53235297,294960279,"kochbs","11.8",1,"T0",NA,1,"COYOTE","1","NOSNOWBAREGROUND",NA,NA,NA,16695,"73998442",5,"beta test","C23_EK000106.JPG","C23_EK000107.JPG","C23_EK000108.JPG","23",NA,"81"
"461",53235269,294960425,"kochbs","11.8",1,"T0",NA,1,"DEERWHITETAILED","1","NOSNOWBAREGROUND","NO",NA,NA,16695,"73998758",6,"beta test","C23_EK000064.JPG","C23_EK000065.JPG","C23_EK000066.JPG","23",NA,"67"
"462",53235319,294960559,"kochbs","11.8",1,"T0",NA,1,"FOXGRAY","1","NOSNOWBAREGROUND",NA,NA,NA,16695,"73998796",5,"beta test","C25_EK000010.JPG","C25_EK000011.JPG","C25_EK000012.JPG","25",NA,"95"
"463",53235378,294960656,"kochbs","11.8",1,"T0",NA,1,"DEERWHITETAILED","1","NOSNOWBAREGROUND","NO",NA,NA,16695,"73998503",6,"beta test","C31_IMG_0112.JPG","C31_IMG_0113.JPG","C31_IMG_0114.JPG","31",NA,"137"
"464",53235347,294960770,"kochbs","11.8",1,"T0",NA,1,"CHIPMUNK","1","NOSNOWBAREGROUND",NA,NA,NA,16695,"73999417",5,"beta test","C31_IMG_0022.JPG","C31_IMG_0023.JPG","C31_IMG_0024.JPG","31",NA,"107"
"465",53235339,294961032,"kochbs","11.8",1,"T0",NA,1,"OTHERSMALLMAMMAL","1","NOSNOWBAREGROUND",NA,NA,NA,16695,"73999574",7,"beta test","C31_IMG_0016.JPG","C31_IMG_0017.JPG","C31_IMG_0018.JPG","31",NA,"105"
"466",53235164,294961130,"kochbs","11.8",1,"T0",NA,1,"DEERWHITETAILED","1","NOSNOWBAREGROUND","NO",NA,NA,16695,"73998313",5,"beta test","C13_IMG_0058.JPG","C13_IMG_0059.JPG","C13_IMG_0060.JPG","13",NA,"20"
"467",53235303,294961373,"kochbs","11.8",1,"T0",NA,1,"SQUIRRELGRAY","1","NOSNOWBAREGROUND",NA,NA,NA,16695,"73998213",5,"beta test","C23_EK000115.JPG","C23_EK000116.JPG","C23_EK000117.JPG","23",NA,"84"
"468",53235357,294961617,"kochbs","11.8",1,"T0",NA,1,"OTHERSMALLMAMMAL","1","NOSNOWBAREGROUND",NA,NA,NA,16695,"73999560",5,"beta test","C31_IMG_0049.JPG","C31_IMG_0050.JPG","C31_IMG_0051.JPG","31",NA,"116"
"469",53235179,294961724,"kochbs","11.8",1,"T0",NA,1,"DEERWHITETAILED","1","NOSNOWBAREGROUND","NO",NA,NA,16695,"73998762",7,"beta test","C13_IMG_0070.JPG","C13_IMG_0071.JPG","C13_IMG_0072.JPG","13",NA,"24"
"470",53235199,294961851,"kochbs","11.8",1,"T0",NA,1,"DEERWHITETAILED","1","NOSNOWBAREGROUND","NO",NA,NA,16695,"73998164",6,"beta test","C13_IMG_0094.JPG","C13_IMG_0095.JPG","C13_IMG_0096.JPG","13",NA,"32"
"471",53235248,294962239,"kochbs","11.8",1,"T0",NA,1,"OTHERSMALLMAMMAL","1","NOSNOWBAREGROUND",NA,NA,NA,16695,"73998458",6,"beta test","C23_EK000028.JPG","C23_EK000029.JPG","C23_EK000030.JPG","23",NA,"55"
"472",53235376,294962240,"Marina04","11.8",1,"T0",NA,1,"CHIPMUNK","1","NOSNOWBAREGROUND",NA,NA,NA,16695,"73999608",5,"beta test","C31_IMG_0106.JPG","C31_IMG_0107.JPG","C31_IMG_0108.JPG","31",NA,"135"
"473",53235356,294962370,"kochbs","11.8",1,"T0",NA,1,"OTHERSMALLMAMMAL","1","NOSNOWBAREGROUND",NA,NA,NA,16695,"73999571",6,"beta test","C31_IMG_0046.JPG","C31_IMG_0047.JPG","C31_IMG_0048.JPG","31",NA,"115"
"474",53235241,294962577,"kochbs","11.8",1,"T0",NA,1,"DEERWHITETAILED","1","NOSNOWBAREGROUND","NO",NA,NA,16695,"73999192",5,"beta test","C23_EK000013.JPG","C23_EK000014.JPG","C23_EK000015.JPG","23",NA,"50"
"475",53235263,294962685,"kochbs","11.8",1,"T0",NA,1,"RACCOON","1","NOSNOWBAREGROUND",NA,NA,NA,16695,"73999256",5,"beta test","C23_EK000052.JPG","C23_EK000053.JPG","C23_EK000054.JPG","23",NA,"63"
"476",53235370,294962868,"kochbs","11.8",1,"T0",NA,1,"OTHERSMALLMAMMAL","1","NOSNOWBAREGROUND",NA,NA,NA,16695,"73999026",5,"beta test","C31_IMG_0088.JPG","C31_IMG_0089.JPG","C31_IMG_0090.JPG","31",NA,"129"
"477",53235153,294962948,"kochbs","11.8",1,"T0",NA,1,"DEERWHITETAILED","1","NOSNOWBAREGROUND","NO",NA,NA,16695,"73998523",5,"beta test","C13_IMG_0034.JPG","C13_IMG_0035.JPG","C13_IMG_0036.JPG","13",NA,"12"
